dataset_name,subject_id,administration_id,age,n_trials,n_trials_rt,rt_var,log_rt_var,short_window_acc_var,long_window_acc_var,short_window_accuracy,long_window_accuracy,short_window_prop_data,long_window_prop_data,short_window_target,long_window_target,short_window_distractor,long_window_distractor,short_window_elogit,long_window_elogit,rt,log_rt,prod,comp,log_age
adams_marchman_2018,382,411,17,30,15,379.7085348376718,0.420056832321023,0.2454160101077582,0.2530862135637252,0.626282086711251,0.6723446172654293,0.8902329749103942,0.8983382209188661,40.32258064516129,79.93548387096774,23.774193548387096,38.645161290322584,0.6738423524371518,1.0780091533621419,840,6.648177989544021,,0.6994949494949495,2.833213344056216
adams_marchman_2018,382,412,17,16,5,234.25413550244957,0.30545058540092596,0.3215662583147026,0.28776318717817023,0.5986796088875245,0.679892728236073,0.8919753086419753,0.7516835016835017,39.888888888888886,66.77777777777777,24.333333333333332,32.44444444444444,0.666876209267101,1.29770511254899,760,6.595743663301313,,0.6994949494949495,2.833213344056216
adams_marchman_2018,382,413,19,28,9,1213.4303418179572,0.7144868179020888,0.28061369624773735,0.25411456042817043,0.23511132485815275,0.2064075474892102,0.9161877394636015,0.8803552769070011,14.689655172413794,23.17241379310345,51.275862068965516,93.03448275862068,-2.1003662947497688,-2.4362143581675086,2147.222222222222,7.481174536500435,,0.702020202020202,2.9444389791664403
adams_marchman_2018,382,414,19,26,13,717.6015071590383,0.5972081226995114,0.35755006563327385,0.3132662438272163,0.7137785842783612,0.7412633216532094,0.88940329218107,0.8695286195286195,46.925925925925924,83.96296296296296,17.11111111111111,30.814814814814813,1.8861269341709896,2.149167920337217,1059.6153846153845,6.789739531580227,,0.702020202020202,2.9444389791664403
adams_marchman_2018,382,415,22,16,11,414.1255848169731,0.4694127445564775,0.21934778921254577,0.20546997431863695,0.8343789167385299,0.8999298149166208,0.920751633986928,0.8533613445378151,55.8235294117647,108,10.470588235294118,11.470588235294118,2.503143123590413,3.975735485605972,725,6.47275738364263,0.34558823529411764,,3.091042453358316
adams_marchman_2018,382,416,22,12,4,223.02372818454393,0.3079841132731287,0.29098428845912,0.28124684576789316,0.8367496219058719,0.7674523393828608,0.943287037037037,0.8773809523809524,57.333333333333336,94.41666666666667,10.583333333333334,28.416666666666668,2.9036593328844194,2.4238778387354802,643.75,6.4287034682022535,0.34558823529411764,,3.091042453358316
adams_marchman_2018,382,417,25,17,7,75.59289460184544,0.129057833555353,0.10881537998820426,0.1307015071659152,0.9037895495850151,0.9169232340694706,0.9673202614379085,0.8987394957983194,63.23529411764706,115.41176470588235,6.411764705882353,10.411764705882353,3.1612413710712564,3.648292665827615,578.5714285714286,6.353366876392795,0.4764705882352941,,3.2188758248682006
adams_marchman_2018,382,418,25,10,5,115.10864433221339,0.16339258699141526,0.3001080332091786,0.251745618482966,0.7513482111813982,0.8082749484395307,0.8597222222222223,0.8571428571428572,46.3,97.3,15.6,22.7,1.4827414955974993,2.859886623430527,705,6.547520230815128,0.4764705882352941,,3.2188758248682006
adams_marchman_2018,382,419,37,12,7,390.702968409263,0.5201718053183099,0.23183403933612698,0.2572599948510928,0.7867272670761322,0.8273645498148282,0.9467592592592593,0.9678571428571429,54,113,14.166666666666666,22.5,2.1044490841247905,3.4647962899835645,657.1428571428571,6.359547747748983,,,3.6109179126442243
adams_marchman_2018,382,420,37,14,9,906.2954969422378,0.5884416129560588,0.2906624019693489,0.26736574066048535,0.6901509620499457,0.7374917233769603,0.9404761904761905,0.9551020408163265,46.92857142857143,99.21428571428571,20.785714285714285,34.5,1.2669140886193546,2.1527989497963635,1169.4444444444443,6.881261561039207,,,3.6109179126442243
adams_marchman_2018,383,421,16,30,16,318.52115968435544,0.31670580631002154,0.2267454418308446,0.24915067650064054,0.6110374039055771,0.6086932571707613,0.8912037037037037,0.875,39.43333333333334,71.4,24.733333333333334,44.1,0.706168722660905,0.8600159894093745,901.5625,6.754032043366853,,0.4696969696969697,2.772588722239781
adams_marchman_2018,383,422,16,30,11,621.1151993866282,0.545516686048055,0.27225419743392626,0.23741813272076867,0.6901728943074924,0.6253164445549644,0.9226851851851852,0.9040404040404041,46.46666666666667,75.23333333333333,19.966666666666665,44.1,1.438184337207772,1.0853958296850699,940.9090909090909,6.6957530219784145,,0.4696969696969697,2.772588722239781
adams_marchman_2018,383,423,18,31,16,380.51157998147704,0.43610008249486315,0.21403715878761195,0.21312119272655428,0.6966532632754733,0.7014095608459509,0.9050179211469535,0.9002932551319648,45.74193548387097,83.7741935483871,19.419354838709676,35.064516129032256,1.1969964324054492,1.3931811615362018,698.4375,6.44666342784753,,0.5606060606060606,2.8903717578961645
adams_marchman_2018,383,424,18,30,11,849.6389607570757,0.5918843389122209,0.2871470687157339,0.2765170205620653,0.6416737734051455,0.6048355023259945,0.9027777777777778,0.8747474747474747,41.733333333333334,70.73333333333333,23.266666666666666,44.733333333333334,1.0190640562359548,0.6377620641354464,931.8181818181819,6.6277254351372745,,0.5606060606060606,2.8903717578961645
adams_marchman_2018,383,425,22,16,9,76.03453162872775,0.11795330919466597,0.10924339954282401,0.060822813655106,0.8403692512469056,0.9610318100386984,0.9296875,0.8816964285714286,56.5,118.75,10.4375,4.6875,2.1094011540648783,4.246918355542327,641.6666666666666,6.457872585974322,0.5308823529411765,,3.091042453358316
adams_marchman_2018,383,426,22,13,5,81.77713616898063,0.11361889983553829,0.11124796575610481,0.11237179840808754,0.8965839449795967,0.9108264897009759,0.905982905982906,0.8549450549450549,58.46153846153846,108.76923076923077,6.769230769230769,10.923076923076923,3.0390216365598883,3.389670455671473,745,6.608338025627152,0.5308823529411765,,3.091042453358316
adams_marchman_2018,383,427,24,18,3,212.62251370288456,0.30707021888828445,0.23770521889069535,0.30026295252269253,0.8060619232517816,0.8147821022352472,0.9459876543209876,0.8805555555555555,55.27777777777778,100.88888888888889,12.833333333333334,22.38888888888889,2.355916198739408,3.1013286672516727,658.3333333333334,6.457124300847951,0.638235294117647,,3.1780538303479458
adams_marchman_2018,383,428,24,11,5,1209.2611380508347,0.7820546204071313,0.3754261060307764,0.28055278646280085,0.657437396821588,0.7036818825034677,0.9467592592592593,0.7964285714285715,44.583333333333336,74.25,23.583333333333332,37.25,1.088568670368352,1.7848517979690373,1580,7.121427128081555,0.638235294117647,,3.1780538303479458
adams_marchman_2018,384,429,15,31,16,436.033255612459,0.45337627002063496,0.21913113293367587,0.18366633173277594,0.6100361948986657,0.5210304276730271,0.8706597222222222,0.8309659090909091,38.3125,57.90625,24.375,51.78125,0.6781412283477108,0.12387517567804654,1068.75,6.885715568647989,,0.3282828282828283,2.70805020110221
adams_marchman_2018,384,430,16,32,14,584.0720074529423,0.4024568600137922,0.3433989866274601,0.24159956221141185,0.5622197859613637,0.5709838738378527,0.9348958333333334,0.9166666666666666,38,69.40625,29.3125,51.59375,0.4475932005630314,0.5376743172211147,1421.4285714285713,7.1844025533366676,,0.3282828282828283,2.772588722239781
adams_marchman_2018,384,431,18,28,11,948.5814768283313,0.5536915645731008,0.3718456977697399,0.3670506822336059,0.5063255828264456,0.5076015765308388,0.9530651340996169,0.9250261233019854,34.51724137931034,62.41379310344827,34.10344827586207,59.689655172413794,-0.0890527692297426,-0.0581371442588214,1547.7272727272727,7.1965598357287925,,0.5909090909090909,2.8903717578961645
adams_marchman_2018,384,432,18,28,15,652.1393365575444,0.4744863183307644,0.31173019687093695,0.24823148190465108,0.5298403909524483,0.5850344613548359,0.9315134099616859,0.8926332288401254,35.58620689655172,67.79310344827586,31.482758620689655,50.03448275862069,0.14899923825672942,0.4528326421370845,1330,7.086625726649944,,0.5909090909090909,2.8903717578961645
adams_marchman_2018,384,433,21,18,4,495.132558008459,0.4063447493238919,0.3589517791856827,0.34299708732034623,0.7579286194916682,0.7502908971533385,0.974537037037037,0.9123015873015873,53.44444444444444,96.05555555555556,16.72222222222222,31.666666666666668,2.3589654991017452,2.2191897519745503,1106.25,6.9426414108416115,0.13823529411764707,,3.044522437723423
adams_marchman_2018,384,434,21,14,7,890.5756565278438,0.5835438670796417,0.37241493652095947,0.38872185634263534,0.59031289213055,0.6389661100724779,0.9553571428571429,0.875,40.42857142857143,79.92857142857143,28.357142857142858,42.57142857142857,0.417277634726288,1.2534931653254868,1175,6.896927140006015,0.13823529411764707,,3.044522437723423
adams_marchman_2018,384,435,24,16,6,289.1438511652404,0.3753813262278225,0.3036545449901624,0.3018992220954643,0.6617609649123184,0.7049611833371696,0.8896604938271605,0.8194444444444444,42.72222222222222,79.05555555555556,21.333333333333332,35.666666666666664,0.9187624558729247,1.362924621737129,804.1666666666666,6.633102598485301,0.5279411764705882,,3.1780538303479458
adams_marchman_2018,384,436,24,13,3,766.621375473795,0.7553015344140485,0.3864588685012284,0.29400452117428344,0.6678177719893436,0.6201498893833695,0.8867521367521367,0.8791208791208791,42.30769230769231,76.38461538461539,21.53846153846154,46.69230769230769,1.483396117726291,0.6568870649084885,1083.3333333333333,6.8057217263235374,0.5279411764705882,,3.1780538303479458
adams_marchman_2018,385,437,15,31,14,505.722744698609,0.4902431754867671,0.2735440244395968,0.2838252670315328,0.6761698704178234,0.6705589643005847,0.9153645833333334,0.9069602272727273,45,81.03125,20.90625,38.6875,1.4194442482479723,1.5506337642778933,1021.4285714285714,6.82021617583125,,0.3282828282828283,2.70805020110221
adams_marchman_2018,385,438,15,31,17,775.8534200554668,0.5017327709042823,0.2973928094797055,0.22367081667546504,0.6745296992775907,0.7976347686822787,0.932347670250896,0.9186217008797654,45.516129032258064,97.41935483870968,21.612903225806452,23.838709677419356,1.2120918865662282,2.1819810384429936,1208.8235294117646,6.9582968505936424,,0.3282828282828283,2.70805020110221
adams_marchman_2018,385,439,17,32,15,551.6101970810633,0.392002229300611,0.2900393600607217,0.21618488946487216,0.7113426158246973,0.7475035059629686,0.9444444444444444,0.9322916666666666,48.9375,92.40625,19.0625,30.65625,1.7873331026121164,2.0367629315022016,1178.3333333333333,6.992203888076031,,0.5075757575757576,2.833213344056216
adams_marchman_2018,385,440,17,32,15,560.362340259365,0.38170692898205444,0.28008270040481265,0.27895848260408196,0.7119767399427881,0.7812317659629434,0.9500868055555556,0.9223484848484849,48.875,96,19.53125,25.75,1.7909247851099563,2.5225889035658398,1063.3333333333333,6.885987794469059,,0.5075757575757576,2.833213344056216
adams_marchman_2018,385,441,21,11,3,200.5201569252661,0.21969241333396228,0.36815829715940074,0.34118014901574584,0.6934442239723332,0.7383196517669605,0.9456018518518519,0.8571428571428571,47.5,89.83333333333333,20.583333333333332,30.166666666666668,1.7529220395203124,1.9617013871322817,916.6666666666666,6.804701577605836,0.34705882352941175,,3.044522437723423
adams_marchman_2018,385,442,22,9,4,470.9808028642639,0.5768621920316666,0.38824237473832446,0.32743443534206373,0.6615108420647361,0.7851019255661839,0.9152777777777777,0.8042857142857143,43.5,86.8,22.4,25.8,1.3403011036982646,2.5860990865270077,881.25,6.664027951356953,0.34705882352941175,,3.091042453358316
adams_marchman_2018,385,443,24,14,4,133.8531533684084,0.18355195798507054,0.1823599211580018,0.19684246939242742,0.8523742105628463,0.808908503631747,0.939484126984127,0.8765306122448979,58.142857142857146,100.28571428571429,9.5,22.428571428571427,2.812428912022282,2.612672858765624,725,6.573504198504935,0.43970588235294117,,3.1780538303479458
adams_marchman_2018,385,444,24,3,1,,,,,,,,,,,,,,,,,0.43970588235294117,,3.1780538303479458
adams_marchman_2018,385,445,35,14,3,230.9401076758503,0.2686775974790376,0.2836354993567828,0.15113569698844173,0.7930725976921629,0.8401848743222646,0.941468253968254,0.8688775510204082,54.642857142857146,103.35714285714286,13.142857142857142,18.285714285714285,2.376707186992771,2.675648763880315,808.3333333333334,6.669833774102274,,,3.5553480614894135
adams_marchman_2018,386,446,15,32,8,984.2509842514763,0.6224219343069923,0.43018349104056136,0.39664374768611704,0.667617853889727,0.629653672265297,0.9622395833333334,0.953125,46,78.75,23.28125,47.0625,1.4631428206651675,0.8658880714692104,1337.5,7.0144803672491935,,0.15404040404040403,2.70805020110221
adams_marchman_2018,386,447,16,32,13,356.85817408356564,0.31490937513170236,0.3604055541811482,0.3165877447215557,0.6275993231135631,0.654819744897047,0.9344618055555556,0.9159564393939393,42.5625,78.875,24.71875,42.03125,1.1072454994279564,1.0117598424233176,1259.6153846153845,7.096138666803336,,0.15404040404040403,2.772588722239781
adams_marchman_2018,386,448,19,32,8,943.4927511266695,0.5458203232704554,0.3741269541761791,0.3418419261553583,0.6885515373125705,0.6511925416476244,0.9635416666666666,0.9398674242424242,48,81.46875,21.375,42.59375,1.6997355923017212,1.4146031877838834,1612.5,7.2510988949144055,,0.3611111111111111,2.9444389791664403
adams_marchman_2018,386,449,19,32,13,294.6504883016661,0.2901029537616276,0.2738749981979914,0.32155412044638315,0.7717706437491302,0.7121094150570132,0.9318576388888888,0.9327651515151515,52.46875,88.46875,14.625,34.65625,2.271594442539199,2.150223991701725,873.0769230769231,6.729380244731615,,0.3611111111111111,2.9444389791664403
adams_marchman_2018,386,450,23,18,12,314.32798687570494,0.28542851462166974,0.27580574861791574,0.29000230314512243,0.5728667308249612,0.6114758142298604,0.9166666666666666,0.8765873015873016,38.333333333333336,76,27.666666666666668,46.72222222222222,0.7451283262350923,0.9879244249911514,1147.9166666666667,7.009451418287153,0.49117647058823527,,3.1354942159291497
adams_marchman_2018,386,451,23,6,3,208.16659994661327,0.3854787526223546,0.3962065532027087,0.33438708580532345,0.6000082795164762,0.6497215260373156,0.9328703703703703,0.8345238095238096,40.833333333333336,77.66666666666667,26.333333333333332,39.166666666666664,0.9138923602345458,1.801994879874878,608.3333333333334,6.364833915398763,0.49117647058823527,,3.1354942159291497
adams_marchman_2018,386,452,25,16,5,520.8166663999915,0.4846644054307514,0.3308005321211241,0.28248518111984444,0.7994907745706978,0.778663765918056,0.9835069444444444,0.8915178571428571,56.875,98.375,13.9375,26.4375,2.7288833907681593,2.5464547066073298,850,6.634307519803469,0.5397058823529411,,3.2188758248682006
adams_marchman_2018,386,453,25,12,6,863.5681791265818,0.556158114859722,0.3129637101331567,0.2759688650101833,0.7572694606089629,0.7868870062553249,0.9004629629629629,0.8660714285714286,49.666666666666664,97.41666666666667,15.166666666666666,23.833333333333332,2.1150596729975613,2.7457604658995045,1225,6.959364907897614,0.5397058823529411,,3.2188758248682006
adams_marchman_2018,386,454,36,12,6,161.5678392090043,0.21049016752793312,0.16287073999065615,0.16809679412323064,0.7868799939695462,0.8929609962339219,0.9479166666666666,0.9601190476190476,53.916666666666664,120.25,14.333333333333334,14.166666666666666,1.9703730029499031,3.3501979542167795,754.1666666666666,6.606934148157017,,,3.58351893845611
adams_marchman_2018,387,455,16,28,12,1014.3571632050787,0.5845283070215214,0.4080795869217789,0.341612094229882,0.6515213941799504,0.6949712172671654,0.9688697318007663,0.9302507836990596,45.6896551724138,85.3448275862069,24.06896551724138,37.44827586206897,1.4268059971595979,1.892821286398108,1737.5,7.304019792384855,,0.45454545454545453,2.772588722239781
adams_marchman_2018,387,456,16,26,12,743.3384715816431,0.4001191906484561,0.3707765128590005,0.31461744747360515,0.5653612583133326,0.5817232688691434,0.934156378600823,0.8742985409652076,37.51851851851852,69.55555555555556,29.74074074074074,45.851851851851855,0.5136010550819203,0.7581505283258202,1677.0833333333333,7.346471571435251,,0.45454545454545453,2.772588722239781
adams_marchman_2018,387,457,18,22,8,202.85352738226806,0.19660945806567434,0.3116928164693386,0.2980372167339577,0.7242630234713147,0.6603610799290067,0.9272222222222222,0.8736363636363637,49,77.96,17.76,37.36,1.9498414574431524,1.228228352597164,996.875,6.887318157838874,,0.7449494949494949,2.8903717578961645
adams_marchman_2018,387,458,19,25,7,601.2140495142586,0.4419922019679485,0.3335434277256253,0.25792717962330447,0.681481379563858,0.7276480559010083,0.9401709401709402,0.8892773892773893,46.65384615384615,86.15384615384616,21.03846153846154,31.23076923076923,1.5813102457914727,1.9631451471870491,1175,6.9761309931223865,,0.7449494949494949,2.9444389791664403
adams_marchman_2018,387,459,21,17,7,694.2364767961171,0.515013013902443,0.33761796772299124,0.27783195373456016,0.6963643866158049,0.7415994532648027,0.8913398692810457,0.8697478991596639,45.588235294117645,91.41176470588235,18.58823529411765,30.352941176470587,1.6692371306827174,1.971903629027904,1146.4285714285713,6.91967162071809,0.6573529411764706,,3.044522437723423
adams_marchman_2018,387,460,22,11,8,862.9204461759911,0.6861095081652625,0.39252667242231293,0.17533149968192951,0.6810911932180589,0.9019311950919907,0.9340277777777778,0.861904761904762,46.916666666666664,105.5,20.333333333333332,15.166666666666666,1.5010106037765782,3.804686442905531,1315.625,6.983845061415043,0.6573529411764706,,3.091042453358316
adams_marchman_2018,387,461,24,15,8,949.8825115319713,0.6164764100652367,0.33304203110814123,0.24561170334357788,0.6158948932356927,0.6917762934681224,0.8984375,0.8352678571428571,40.5,82.1875,24.1875,34.75,0.5983824615860548,1.4215588511900445,1381.25,7.051789408043261,0.8382352941176471,,3.1780538303479458
adams_marchman_2018,387,462,24,5,2,141.4213562373095,0.20342194425645388,0.28376491459028563,0.27988689813240464,0.666682624277101,0.5543935680521044,0.8310185185185185,0.7559523809523809,40.5,61,19.333333333333332,44.833333333333336,1.6211756779870217,0.9175647198702841,700,6.540770691442036,0.8382352941176471,,3.1780538303479458
adams_marchman_2018,387,463,36,14,5,694.2621983083912,0.506334368499196,0.3011585963950187,0.23271913614631368,0.7210990502035278,0.7462792253853564,0.9285714285714286,0.8806122448979592,47.92857142857143,92.64285714285714,18.928571428571427,30.642857142857142,1.7400850495376303,2.140423256243896,1295,7.060627044776985,,,3.58351893845611
adams_marchman_2018,388,464,15,31,12,326.9753488993915,0.30605438511881844,0.30112728503671593,0.2487362721633408,0.7149112056224888,0.8090693552569809,0.942652329749104,0.9403714565004888,49.45161290322581,100.83870967741936,18.419354838709676,23.29032258064516,2.026160054225574,2.490819135055909,1129.1666666666667,6.987970834899737,,0.6186868686868687,2.70805020110221
adams_marchman_2018,388,465,15,29,12,816.0412339180817,0.5421809920369786,0.3830711843140718,0.33240723837787095,0.654274542200295,0.7279559831360584,0.9513888888888888,0.9151515151515152,45.03333333333333,87.9,23.466666666666665,32.9,1.2113126245773211,1.7967391051881936,1381.25,7.089596855060824,,0.6186868686868687,2.70805020110221
adams_marchman_2018,388,466,18,30,12,203.41543921023035,0.24363017754034524,0.19856581036234036,0.27807905737528776,0.7672073372488812,0.7692183114508763,0.9516129032258065,0.9254643206256109,52.96774193548387,94.35483870967742,15.548387096774194,27.806451612903224,2.0720978001185846,2.5852044188105188,893.75,6.769480380397988,,0.6767676767676768,2.8903717578961645
adams_marchman_2018,388,467,18,32,17,689.8389358052655,0.40653418948183073,0.24135889698801052,0.2801276199342061,0.7436605971771523,0.7138739736110302,0.9361979166666666,0.9050662878787878,50.375,85.875,17.03125,33.59375,1.6569893194413037,1.6669512152317498,995.5882352941177,6.79387879801598,,0.6767676767676768,2.8903717578961645
adams_marchman_2018,388,468,21,18,8,259.03323008006964,0.25465312903261844,0.32155848585042823,0.3411007918065721,0.6874698846823518,0.7421043122045531,0.9645061728395061,0.8623015873015873,47.888888888888886,89.05555555555556,21.555555555555557,31.666666666666668,1.4389914541178508,1.8063117919100928,918.75,6.792642017572319,0.5588235294117647,,3.044522437723423
adams_marchman_2018,388,469,21,13,4,1119.6167499044782,0.6265156545113757,0.4089378078549411,0.38437072203786427,0.6722689075630253,0.7072337608452578,0.9444444444444444,0.8688775510204082,47.5,84.78571428571429,20.5,36.857142857142854,1.5907144927020824,1.3306428041547247,1512.5,7.154773207224323,0.5588235294117647,,3.044522437723423
adams_marchman_2018,388,470,23,17,5,242.7704677262043,0.22421271362916112,0.3286084203876311,0.27349303394639785,0.7091638163469388,0.7712965325989446,0.9501633986928104,0.8189075630252101,48.94117647058823,89.29411764705883,19.470588235294116,25.352941176470587,1.8406159221447684,2.5096946888455753,985,6.871229333127294,0.6985294117647058,,3.1354942159291497
adams_marchman_2018,388,471,24,10,4,1413.9741570009924,0.8077409908927223,0.3833412917598206,0.3277444481038035,0.7434411658148073,0.8342797016730498,0.9659090909090909,0.8662337662337662,52.18181818181818,97.63636363636364,17.363636363636363,23.636363636363637,2.3472533364494774,3.7551147160953406,1631.25,7.138878591247588,0.6985294117647058,,3.1780538303479458
adams_marchman_2018,389,472,15,32,18,308.40619170984115,0.33310076047503756,0.1968723271536323,0.162184329215373,0.6448690598214716,0.6138668920784218,0.8993055555555556,0.8641098484848485,42.0625,69.625,22.6875,44.4375,0.8029596429309914,0.5419837200276212,919.4444444444445,6.771679886711694,,0.4166666666666667,2.70805020110221
adams_marchman_2018,389,473,16,31,12,148.66833128569354,0.2334604944840141,0.199823633702224,0.20301694812987697,0.5923734420288592,0.5897274661647546,0.8654513888888888,0.8186553030303031,37,64.5,25.3125,43.5625,0.5167317980799472,0.6532693713868197,712.5,6.545746451760678,,0.4166666666666667,2.772588722239781
adams_marchman_2018,389,474,19,28,12,97.19065143969726,0.16631987595836187,0.23095877191885203,0.24084991554583554,0.7146295464554593,0.6260635913081217,0.9013888888888889,0.8103535353535354,46.93333333333333,67.6,17.966666666666665,39.36666666666667,1.3945713257611925,0.9463144172680147,606.25,6.395025208148163,,0.5656565656565656,2.9444389791664403
adams_marchman_2018,389,475,19,26,14,95.57518184453214,0.15113601876486757,0.17971695705609403,0.24128391825320622,0.6960177017099777,0.6511024071476539,0.8402777777777778,0.717929292929293,42.5,60.63333333333333,18,34.13333333333333,1.1099500571544993,0.9740837336840111,625,6.427083866304204,,0.5656565656565656,2.9444389791664403
adams_marchman_2018,389,476,22,18,7,77.72815877574013,0.1146497092633933,0.24379141622772393,0.2527781345485408,0.7007739333747178,0.724204086199981,0.8734567901234568,0.7587301587301587,45.05555555555556,77.66666666666666,17.833333333333332,28.555555555555557,1.37525699364605,1.891916506705839,650,6.4711829272114985,0.3897058823529412,,3.091042453358316
adams_marchman_2018,389,477,22,13,8,105.22085616183026,0.20240966705403787,0.11924027469150017,0.11501908444293077,0.824619753524608,0.8900111084502339,0.9087301587301587,0.7846938775510204,54.214285714285715,97.14285714285714,11.214285714285714,12.714285714285714,1.8857721489841779,3.09836103424556,562.5,6.315415706990275,0.3897058823529412,,3.091042453358316
adams_marchman_2018,389,478,24,18,8,268.07431672152836,0.3343749662646764,0.2556634023667696,0.3547353286488617,0.7458671110310454,0.6304823212217893,0.9382716049382716,0.875,50.388888888888886,77.33333333333333,17.166666666666668,45.166666666666664,1.8409451622818152,1.3556230633750326,696.875,6.493192053950581,0.6411764705882353,,3.1780538303479458
adams_marchman_2018,389,479,24,12,1,,,0.2916812666326624,0.2808607306787493,0.7956043391253703,0.6790647064803179,0.8958333333333334,0.8505952380952381,51.5,83.08333333333333,13,36,2.86427814236572,1.9130975629841107,,,0.6411764705882353,,3.1780538303479458
adams_marchman_2018,389,480,37,14,4,192.0286436967152,0.327614264811766,0.2389363237929103,0.18403223253453635,0.8109840849870124,0.7138679736457243,0.9494047619047619,0.9326530612244898,55.785714285714285,93.5,12.571428571428571,37.07142857142857,2.5285008961082798,1.4644101515184096,512.5,6.195063653156186,,,3.6109179126442243
adams_marchman_2018,389,481,37,18,6,472.7578661429125,0.5191340097528696,0.22419021715342152,0.2761501540684434,0.7321154212587334,0.6878179765485319,0.8811728395061729,0.8539682539682539,46.77777777777778,83.55555555555556,16.666666666666668,36,1.5069290263401884,1.533196755332356,775,6.528258901602092,,,3.6109179126442243
adams_marchman_2018,390,482,17,31,13,462.738157670299,0.4425285514034224,0.2782955022761592,0.2795711635813608,0.7534697601252107,0.7328519921432205,0.932347670250896,0.9340175953079178,50.83870967741935,90.90322580645162,16.29032258064516,32.38709677419355,1.808057899222513,2.018136780447353,888.4615384615385,6.690542110448802,,0.755050505050505,2.833213344056216
adams_marchman_2018,390,483,17,31,14,757.5558043492881,0.4771854913458689,0.2953362120134183,0.26063595829458336,0.6871437544064278,0.5685559582698513,0.9019097222222222,0.8558238636363636,45.125,62.625,19.8125,50.34375,1.3377044772452935,0.4116538886300795,926.7857142857143,6.681809666939055,,0.755050505050505,2.833213344056216
adams_marchman_2018,390,484,19,29,17,430.56477957650543,0.3680555797426008,0.2737333985821231,0.26207265325553264,0.7093319711221301,0.630685541586225,0.859375,0.8241003787878788,44.03125,68.65625,17.84375,40.125,1.2881840059724565,1.0843476896638895,883.8235294117648,6.708199474232317,,0.9090909090909091,2.9444389791664403
adams_marchman_2018,390,485,19,22,12,455.27214638359686,0.45685711209331525,0.3225361068598353,0.33754275315282045,0.6394262389338857,0.5819071625351985,0.853448275862069,0.6912225705329154,39.58620689655172,55.827586206896555,21.862068965517242,35.41379310344828,1.0300786519881981,0.5854562416141551,850,6.640465238500926,,0.9090909090909091,2.9444389791664403
adams_marchman_2018,390,486,22,18,5,810.362573173268,0.6147017689290036,0.3575912033083594,0.3558036146593775,0.6974830339413672,0.6649767090461702,0.9143518518518519,0.8630952380952381,46.77777777777778,81.55555555555556,19.055555555555557,39.27777777777778,1.400620953200507,1.485758351117815,1045,6.773724137139706,0.6352941176470588,,3.091042453358316
adams_marchman_2018,390,487,22,12,2,88.38834764831844,0.13909518299058565,0.36763089625931145,0.35963577328884966,0.7514990262586416,0.6854032815359338,0.9262820512820513,0.8423076923076923,51.61538461538461,81.76923076923077,15.076923076923077,36.15384615384615,2.050539701950337,1.4312085776672896,637.5,6.452725187920377,0.6352941176470588,,3.091042453358316
adams_marchman_2018,390,488,24,13,6,390.325718684622,0.43327660415134767,0.18619636705762882,0.21747949271141626,0.8665819970761803,0.7311433207775292,0.90625,0.7522321428571429,57.1875,79.0625,8.0625,26.25,2.9092975742339546,1.4741017351355559,770.8333333333334,6.56059775027688,0.7573529411764706,,3.1780538303479458
adams_marchman_2018,390,489,24,10,4,821.6789214772398,0.3438005905647234,0.3972397591751937,0.390194636616615,0.3663817227923715,0.4583434237925565,0.8645833333333334,0.775,22.166666666666664,48.91666666666667,40.083333333333336,59.583333333333336,-1.1250247907484787,-0.5355999481850534,2181.25,7.640514651534167,0.7573529411764706,,3.1780538303479458
adams_marchman_2018,390,490,36,13,3,132.28756555322954,0.27404491615321974,0.22837255172648832,0.17038860606242723,0.8783952265410067,0.7959677402355781,0.9583333333333334,0.8846153846153846,60.84615384615385,98.07692307692308,8.153846153846153,25.76923076923077,3.214823760644304,2.32409140418875,525,6.239682572168054,,,3.58351893845611
adams_marchman_2018,390,491,37,18,8,546.8150477342147,0.6052553841335024,0.2906111509857047,0.17536063809182825,0.7411012839768495,0.8114030806539837,0.9398148148148148,0.9527777777777777,50.5,108.66666666666667,17.166666666666668,24.72222222222222,2.080523933773183,2.2507403022546315,996.875,6.7536782228221615,,,3.6109179126442243
adams_marchman_2018,391,492,16,28,8,335.67628964311945,0.32857615558489117,0.2508243933682747,0.21349548415261135,0.7530130736107798,0.7510070766874316,0.9176245210727969,0.8934169278996865,50.655172413793096,88.75862068965517,15.413793103448276,29.17241379310345,2.2258782343631434,1.947089025741453,1037.5,6.8980962077421974,,0.25252525252525254,2.772588722239781
adams_marchman_2018,391,493,16,31,15,272.63048426832415,0.2747195341767376,0.24347992593254555,0.2173135592103555,0.7681873983333656,0.7476963556894126,0.9045138888888888,0.8759469696969697,50.4375,87.53125,14.6875,28.09375,2.0502471040594084,1.8677033305408108,918.3333333333334,6.785593721085068,,0.25252525252525254,2.772588722239781
adams_marchman_2018,391,494,18,31,19,372.96229996205034,0.34611457216202784,0.28005495448251,0.2851978214827325,0.6612308379705623,0.6869731835620475,0.8826164874551972,0.8748778103616813,42.35483870967742,78.74193548387096,21.193548387096776,36.74193548387097,0.912586229559487,1.041402345032118,942.1052631578948,6.7872538022816835,,0.43686868686868685,2.8903717578961645
adams_marchman_2018,391,495,18,30,15,682.2014435075681,0.43969306310209816,0.2783668164808842,0.3005971400557182,0.7577783434779704,0.7140133202677886,0.9083333333333333,0.9118686868686868,49.83333333333333,86.06666666666666,15.566666666666666,34.3,1.7888942879875698,1.8413184667363534,1018.3333333333333,6.8077072605671525,,0.43686868686868685,2.8903717578961645
adams_marchman_2018,391,496,21,15,6,250.87347408604202,0.3092891827076072,0.2598963324780722,0.26749884161391113,0.8074069678859654,0.8445785708603447,0.9157986111111112,0.8361607142857143,53.125,99.25,12.8125,17.8125,2.2693625294443938,2.915145823933044,812.5,6.6604741611273806,0.2676470588235294,,3.044522437723423
adams_marchman_2018,391,497,24,15,7,609.083034451907,0.4906853973178676,0.2990745060200761,0.23317530532879205,0.7379195774236311,0.8452036074967535,0.9071180555555556,0.8223214285714285,48.75,97.5,16.5625,17.625,1.913160169751277,2.926911758435195,982.1428571428571,6.769745856000674,0.38382352941176473,,3.1780538303479458
adams_marchman_2018,391,498,24,4,3,766.0776723022282,0.49624111691091516,0.41795234168414275,0.22677580896093533,0.5537846481876333,0.8133495696758837,0.9756944444444444,0.9142857142857143,38.75,104.25,31.5,23.75,0.22104871790125924,2.4126417896312677,1450,7.193136131994763,0.38382352941176473,,3.1780538303479458
adams_marchman_2018,391,499,37,14,5,1031.5946393811864,0.6259562407985784,0.3513684498343655,0.31351751355275786,0.7618001046572476,0.7994708406051183,0.9603174603174603,0.9290816326530612,52.714285714285715,104.14285714285714,16.428571428571427,25.928571428571427,2.148240037199633,2.8274076466688256,1270,6.9573859163457845,,,3.6109179126442243
adams_marchman_2018,391,500,37,17,8,551.1351921262151,0.5407932758374406,0.35315079246632713,0.254359430982851,0.5361460330724811,0.710433292308184,0.9084967320261438,0.9239495798319328,35.94117647058823,92.52941176470588,29.470588235294116,36.8235294117647,0.814844361771539,1.9290640709927074,1412.5,7.151623271419243,,,3.6109179126442243
adams_marchman_2018,392,501,15,26,14,772.9568068622756,0.4573394331465262,0.33602455584489394,0.27550711763789193,0.5835668102053909,0.5680573743108175,0.9418724279835391,0.9001122334455668,39.62962962962963,67.37037037037037,28.185185185185187,51.44444444444444,0.5828661238382055,0.23666672438154765,1383.9285714285713,7.123323405294643,,0.4166666666666667,2.70805020110221
adams_marchman_2018,392,502,16,29,18,177.65838004439868,0.25015681417617736,0.21087852247588854,0.23747915992366875,0.6900380978953624,0.654467613171792,0.9037037037037037,0.8679292929292929,45.36666666666667,73.63333333333334,19.7,40.93333333333333,1.1973096087612858,1.1172033624007025,820.8333333333334,6.683872178330873,,0.4166666666666667,2.772588722239781
adams_marchman_2018,392,503,17,27,13,840.3629786571015,0.5304963580640594,0.31851946965330014,0.27356384930787064,0.6233419293773421,0.560027285665194,0.9048353909465021,0.8827160493827161,40.666666666666664,65.48148148148148,24.48148148148148,51.03703703703704,0.8707991420857181,0.3963435046386457,1388.4615384615386,7.097559584491572,,,2.833213344056216
adams_marchman_2018,392,504,18,23,14,933.1722453869057,0.5406143462682621,0.36586515072393916,0.32874337934702036,0.4470837945708878,0.4574106291406815,0.9116666666666666,0.8506060606060606,29.119999999999997,52.36,36.52,59.92,-0.606362521889649,-0.5129799829080458,1592.857142857143,7.230805768150801,,,2.8903717578961645
adams_marchman_2018,392,505,22,13,7,152.55756134590484,0.22498510286537882,0.2313835828928217,0.17889653020459104,0.719698524950075,0.847951753388184,0.8663194444444444,0.7433035714285714,46.5,85.5625,15.875,18.5,1.5038364807156337,2.6402695844152504,767.8571428571429,6.623721597059194,0.4235294117647059,,3.091042453358316
adams_marchman_2018,392,506,22,12,4,929.8297335175582,0.790274295580801,0.3686206885575535,0.35887437215168677,0.6958725404497463,0.5801297717389114,0.9513888888888888,0.8797619047619047,47.5,73.41666666666667,21,49.75,1.3651538505209773,1.0960315164650074,1275,6.930637858443535,0.4235294117647059,,3.091042453358316
adams_marchman_2018,392,507,25,17,10,575.2052773672292,0.5117261829713047,0.2900664156873392,0.16026606430346235,0.7529798058157453,0.9039981488292075,0.9411764705882353,0.8638655462184874,51.11764705882353,109.94117647058823,16.647058823529413,11,1.8444419754745063,3.626857198237112,940,6.714149459406218,0.6220588235294118,,3.2188758248682006
adams_marchman_2018,392,508,25,7,2,441.9417382415922,0.38112808070390314,0.24848828395395534,0.16780421655894895,0.826030412164866,0.914508403020216,0.8541666666666667,0.7741071428571429,52.75,99.375,8.75,9,3.1284565784662934,4.190703309057025,1187.5,7.043722136723957,0.6220588235294118,,3.2188758248682006
adams_marchman_2018,393,509,15,27,12,630.1905676183605,0.5217078989040266,0.29631351803436873,0.25809095444878033,0.6169300278420095,0.6000899347614402,0.9191468253968254,0.9101731601731602,41.03571428571429,72.64285714285714,25.142857142857142,47.5,0.8926261185379449,0.9182386641547177,1170.8333333333333,6.942504778290469,,0.20454545454545456,2.70805020110221
adams_marchman_2018,393,510,16,25,10,914.618924895925,0.515156050817927,0.4031854477005874,0.27585858059672136,0.4837897042167139,0.46967908952539456,0.9145299145299145,0.8041958041958042,31.692307692307693,50.61538461538461,34.15384615384615,55.53846153846154,-0.232432596345097,-0.08333366175606689,2200,7.595635544844234,,0.20454545454545456,2.772588722239781
adams_marchman_2018,393,511,18,30,14,683.5588835299759,0.35578186630369557,0.35327474101588663,0.3509832816304907,0.5007005842566123,0.539243524030819,0.9268518518518518,0.9227272727272727,34.2,65.7,32.53333333333333,56.1,0.16491351349227235,0.39955932681630146,1482.142857142857,7.231891510779798,,0.3712121212121212,2.8903717578961645
adams_marchman_2018,393,512,18,27,11,764.1171376170017,0.44600928853017685,0.3551411353839958,0.2925322717052426,0.5112938035554082,0.5795858814387039,0.9191468253968254,0.8582251082251082,34.07142857142857,63.642857142857146,32.107142857142854,49.642857142857146,-0.1655464855899093,0.5062541390031905,1475,7.196007091275982,,0.3712121212121212,2.8903717578961645
adams_marchman_2018,393,513,21,16,5,230.21728866442677,0.3235508360645422,0.33049576846589257,0.3290191577426224,0.5640762195986255,0.5080511975420592,0.8984375,0.8205357142857143,36.5,58.0625,28.1875,56.8125,0.6047741236796776,-0.0032135292699978016,865,6.725969167892858,0.13970588235294118,,3.044522437723423
adams_marchman_2018,393,514,21,7,3,776.7453465154028,0.5327465604299664,0.3896723869988293,0.36276819506569147,0.4719438121065759,0.37021311613183344,0.7972222222222223,0.6714285714285714,26.599999999999998,33.3,30.8,60.7,-0.5507446517338495,-1.058982012017632,1433.3333333333333,7.1717843217870865,0.13970588235294118,,3.044522437723423
adams_marchman_2018,393,515,24,11,6,864.544677850717,0.511419947660499,0.3327853716583483,0.22398798498630665,0.5996607858114164,0.7627651334719046,0.9305555555555556,0.8688311688311688,40.36363636363637,93.18181818181819,26.636363636363637,28.454545454545453,0.6703531033450643,1.692958809321292,1512.5,7.204432279639945,0.27941176470588236,,3.1780538303479458
adams_marchman_2018,393,516,24,7,2,282.842712474619,0.1865450863039724,0.3662680914739088,0.1746167900862792,0.7118180605575564,0.8187148543627978,0.9662698412698413,0.8704081632653061,50.42857142857143,99.57142857142857,19.142857142857142,22.285714285714285,2.52243281040723,2.503332343275745,1525,7.321075033942892,0.27941176470588236,,3.1780538303479458
adams_marchman_2018,393,517,36,11,7,123.6835439645026,0.15291134707166762,0.1278222415557417,0.10833601150058397,0.840244012161231,0.9303589389306418,0.8910256410256411,0.5467032967032966,53.76923076923077,71.3076923076923,10.384615384615385,5.230769230769231,2.322032553648506,3.540602092707069,746.4285714285714,6.604737667457211,,,3.58351893845611
adams_marchman_2018,393,518,36,17,7,599.6030432909839,0.6138722467963242,0.38753488222291704,0.2707849217366779,0.5200513613582138,0.6564618779649218,0.8464052287581699,0.8743697478991597,30.647058823529413,81.47058823529412,30.294117647058822,40.94117647058823,0.5379956610642553,1.270883102277437,1367.857142857143,7.092670796030682,,,3.58351893845611
adams_marchman_2018,394,519,15,26,9,336.804839632687,0.40130303641541176,0.25283616929944724,0.22239310238556825,0.6853669301768127,0.6560108255045333,0.9074074074074074,0.8720538720538721,45.51851851851852,75.44444444444444,19.814814814814813,39.666666666666664,1.475974482720303,1.087390510555446,925,6.763650278764473,,0.6085858585858586,2.70805020110221
adams_marchman_2018,394,520,15,26,14,490.3323609306489,0.32924609887899176,0.27079185190100596,0.2515268046700707,0.6893571358762384,0.6655536688139465,0.9038065843621399,0.8201459034792368,44.77777777777778,73.11111111111111,20.296296296296298,35.148148148148145,1.3480280892319898,1.1927377044554361,1057.142857142857,6.900785593628084,,0.6085858585858586,2.70805020110221
adams_marchman_2018,394,521,18,24,13,476.26350172664195,0.40291645916856433,0.2849683264768601,0.2297162681317962,0.6702194386987121,0.6952196353326728,0.9166666666666666,0.8125,44.25,75,21.75,32.25,1.0818745837075374,1.6069243282025047,984.6153846153846,6.809720469661305,,0.6843434343434344,2.8903717578961645
adams_marchman_2018,395,522,16,30,10,964.5234862643603,0.7090185476994089,0.4267020668787123,0.3784860998582959,0.5838706686524524,0.6286490394416858,0.9680555555555556,0.9373737373737374,40.56666666666667,76.7,29.133333333333333,47.03333333333333,0.5535654071448118,1.042415993077841,1585,7.166721612156238,,0.14898989898989898,2.772588722239781
adams_marchman_2018,395,523,16,30,14,952.7216652457166,0.5424999366772764,0.383541232118299,0.3475751066952944,0.5630730864835796,0.6269275513905409,0.9569444444444445,0.948989898989899,38.7,78.1,30.2,47.166666666666664,0.5220543805615336,0.6579941389677745,1596.4285714285713,7.230912492192147,,0.14898989898989898,2.772588722239781
adams_marchman_2018,395,524,18,31,17,193.89818811154782,0.25921959530698185,0.24817988380820163,0.3427510887033117,0.7092861695670231,0.7242269253771529,0.9444444444444444,0.9506353861192571,48.35483870967742,90.7741935483871,19.64516129032258,34.70967741935484,1.4095750297393146,1.7327872511915494,829.4117647058823,6.691552509288547,,0.4393939393939394,2.8903717578961645
adams_marchman_2018,395,525,18,29,13,142.83081259182498,0.23593444030821653,0.2759685675233324,0.3390904677693987,0.7415911187436315,0.6792606419101048,0.9435185185185185,0.8904040404040404,50.46666666666667,81.4,17.466666666666665,36.13333333333333,1.5515545024764805,1.4008510941900882,678.8461538461538,6.496765419609224,,0.4393939393939394,2.8903717578961645
adams_marchman_2018,395,526,22,18,10,130.41067611374632,0.1758846694583367,0.18665973346290057,0.2998220926424925,0.7483839429491604,0.8268506628428889,0.9598765432098766,0.8984126984126984,51.94444444444444,104.5,17.166666666666668,21.27777777777778,1.7185486622590203,2.7793689640884907,777.5,6.642659094619897,0.08676470588235294,,3.091042453358316
adams_marchman_2018,395,527,22,14,7,249.34437841591506,0.3374493454035563,0.32769508752042703,0.35596263467115347,0.621511877319474,0.6095860037909977,0.9484126984126984,0.8918367346938776,42.785714285714285,77.07142857142857,25.5,47.785714285714285,0.8154316202751477,1.173533690469662,703.5714285714286,6.5061037301364255,0.08676470588235294,,3.091042453358316
adams_marchman_2018,395,528,24,18,8,285.9039549019416,0.4115605241904476,0.13108952459756532,0.1802867155112214,0.8702293871737831,0.9145598970862415,0.9228395061728395,0.9087301587301587,58.27777777777778,116.61111111111111,8.166666666666666,10.61111111111111,2.7642358219621164,3.891594848912375,681.25,6.449547021310913,0.18676470588235294,,3.1780538303479458
adams_marchman_2018,395,529,24,14,6,179.35068069752805,0.2699282117644182,0.15704621208416247,0.25297900575322163,0.8467373808705831,0.8032268713077039,0.9513888888888888,0.8816326530612245,58.42857142857143,99.21428571428571,10.071428571428571,24.214285714285715,2.595287302092878,3.0296448016808957,666.6666666666666,6.471970175168803,0.18676470588235294,,3.1780538303479458
adams_marchman_2018,395,530,36,12,5,110.96170510586073,0.21144448100086288,0.14213829804176023,0.0811647646759344,0.8932061588855583,0.96598887395636035,0.9057539682539683,0.5811224489795919,59.5,78.21428571428571,5.714285714285714,3.142857142857143,3.2248701110253646,4.422132956988372,580,6.346319245580257,,,3.58351893845611
adams_marchman_2018,395,531,36,18,3,112.73124382057235,0.14462566681067154,0.23064397643741474,0.10363210017928588,0.7595662657152719,0.8870845682049304,0.9112654320987654,0.9210317460317461,51.05555555555556,114.94444444444444,14.555555555555555,14,2.2347610240933573,3.047685643579338,791.6666666666666,6.667239727288256,,,3.58351893845611
adams_marchman_2018,396,532,16,32,17,619.7759616563543,0.40234385820139074,0.2961314799975097,0.2622554145259319,0.5844714575167569,0.5754945223363024,0.9305555555555556,0.9053030303030303,39.46875,69.21875,27.53125,50.28125,0.7089337603788508,0.7110351248120597,1282.3529411764705,7.0706793557187915,,0.4696969696969697,2.772588722239781
adams_marchman_2018,396,533,16,30,13,469.3062938379342,0.33182317505045306,0.3143274516776587,0.2598640754601876,0.5941911790564548,0.4620883992970591,0.9202508960573477,0.8936950146627566,39.58064516129032,54,26.677419354838708,63.96774193548387,0.6412835289248905,-0.17186401090822953,1057.6923076923076,6.902708438750929,,0.4696969696969697,2.772588722239781
adams_marchman_2018,396,534,18,30,9,793.965959247904,0.5784223202673355,0.33312276778889827,0.2923912616284464,0.5205989924325717,0.5409414733695584,0.9328703703703703,0.9262626262626262,34.8,65.93333333333334,32.36666666666667,56.333333333333336,0.055350260574229856,0.20578802726635162,1052.7777777777778,6.784537847141866,,0.5151515151515151,2.8903717578961645
adams_marchman_2018,396,535,19,30,13,494.8533193708088,0.3542987580962946,0.30713815874645767,0.25098084668084,0.6986139454236706,0.6443813188773708,0.9314516129032258,0.897605083088954,47.35483870967742,77.06451612903226,19.70967741935484,41.41935483870968,1.7551639504361092,1.0392358721534314,1078.8461538461538,6.915377587021878,,0.5151515151515151,2.9444389791664403
adams_marchman_2018,396,536,22,16,7,338.1497273327868,0.3253285925415557,0.3183967368193846,0.25551489352685375,0.7101692485458103,0.5735905123217485,0.9174836601307189,0.834873949579832,47.411764705882355,68.47058823529412,18.647058823529413,48.411764705882355,2.038708426109664,0.2966650911434588,914.2857142857143,6.768909372341827,0.06764705882352941,,3.091042453358316
adams_marchman_2018,396,537,22,7,4,221.7355782608345,0.37723891151920624,0.3175330708169674,0.38911076216208845,0.7374881287823479,0.657626947035814,0.8333333333333334,0.7092857142857143,43.6,65.9,16.4,33.4,1.8192375088214996,1.668415533492269,650,6.427095745619681,0.06764705882352941,,3.091042453358316
adams_marchman_2018,396,538,24,17,9,1145.810605835207,0.7586866639253202,0.37908748578872214,0.3305621033167776,0.6694667761551601,0.6543415461985241,0.9125816993464052,0.8533613445378151,43.1764705882353,79.11764705882354,22.529411764705884,40.35294117647059,1.2618103746260168,1.7341688107076032,1477.7777777777778,7.038641504199002,0.12941176470588237,,3.1780538303479458
adams_marchman_2018,396,539,24,9,2,813.1727983645296,0.3244671788221912,0.45342903608007495,0.3688425289498703,0.49659414659414663,0.6289264171630023,0.8692129629629629,0.705952380952381,31,59.08333333333333,31.583333333333332,39.75,-0.014088785307671214,0.88500834738512,2550,7.817756619752862,0.12941176470588237,,3.1780538303479458
adams_marchman_2018,396,540,35,11,6,265.98872156540773,0.343518098511661,0.24061820473610995,0.16347121402074558,0.7790632899766388,0.7235829819645481,0.9178240740740741,0.8089285714285714,52.25,82.16666666666667,13.833333333333334,31.083333333333332,2.1206607420459096,1.3115956973762082,650,6.421833764904234,,,3.5553480614894135
adams_marchman_2018,397,541,16,30,15,267.00499371110396,0.30457447215156064,0.3148982719646546,0.2878911167258811,0.7055433446788342,0.7138716769751264,0.9513888888888888,0.95,48.8,90.06666666666666,19.7,35.333333333333336,1.738252911691398,1.6836311388258918,898.3333333333334,6.758216379620327,,0.43686868686868685,2.772588722239781
adams_marchman_2018,397,542,16,30,14,774.6498677353644,0.5260866480512735,0.2695067422640148,0.30717034130857185,0.6709815267769973,0.5938894751741858,0.9135304659498208,0.9235092864125122,44.483870967741936,72.93548387096774,21.29032258064516,48.96774193548387,1.1919954462220321,0.7251106660609367,921.4285714285714,6.65457376828284,,0.43686868686868685,2.772588722239781
adams_marchman_2018,397,543,18,30,11,230.16792288951285,0.31157275031092696,0.2496047192485803,0.303119703017688,0.6920209119469654,0.6049766814443978,0.9208333333333333,0.9323232323232323,46.266666666666666,74.76666666666667,20.033333333333335,48.3,1.4240629075183442,0.7492512589730337,904.5454545454545,6.769208552090162,,0.6313131313131313,2.8903717578961645
adams_marchman_2018,397,544,19,26,14,691.8282833379781,0.43557787625429756,0.3119620760142091,0.3585313007733959,0.6938511347846259,0.6890348068992875,0.9315843621399177,0.9177890011223344,46.62962962962963,83.33333333333333,20.444444444444443,37.81481481481482,1.2000817562863308,1.6092684306832743,935.7142857142857,6.716931059665618,,0.6313131313131313,2.9444389791664403
adams_marchman_2018,397,545,22,18,8,173.94452112260228,0.2070588885650243,0.2478672018668333,0.26212062695523897,0.8005688122887202,0.8312003709818842,0.9459876543209876,0.8801587301587301,54.666666666666664,103.44444444444444,13.444444444444445,19.77777777777778,2.203136720485575,2.779827331180533,828.125,6.700231041318489,0.36617647058823527,,3.091042453358316
adams_marchman_2018,397,546,22,13,1,,,0.4315128003428375,0.4108015521050184,0.651008582415355,0.62577395722557,0.9743589743589743,0.9159340659340659,45.69230769230769,80.76923076923077,24.46153846153846,47.46153846153846,1.352907949100557,1.554649567629916,,,0.36617647058823527,,3.091042453358316
adams_marchman_2018,397,547,24,18,9,153.31974577478417,0.2104538495698726,0.14782523408487316,0.06150323565460436,0.8636466869085943,0.9614019277002139,0.9614197530864198,0.9146825396825397,60.111111111111114,123.22222222222223,9.11111111111111,4.833333333333333,2.870869078993589,4.229642562981759,747.2222222222222,6.597029859008996,0.5,,3.1780538303479458
adams_marchman_2018,397,548,24,14,5,564.745517910501,0.4387800520004453,0.389027209319034,0.30413236415133965,0.6837381619879973,0.6082943137097336,0.9246031746031746,0.8739795918367347,45.5,74.14285714285714,21.071428571428573,48.214285714285715,2.001281023722901,1.157691392393708,1385,7.1598377209303905,0.5,,3.1780538303479458
adams_marchman_2018,397,549,36,14,4,287.22813232690146,0.2719259022215353,0.20458179099095491,0.18744213304854204,0.8321057646260676,0.8486832763035735,0.9136904761904762,0.9122448979591836,54.5,108.57142857142857,11.285714285714286,19.142857142857142,2.6772918918068136,2.743211940560375,1025,6.904129107431416,,,3.58351893845611
adams_marchman_2018,397,550,36,18,7,465.66644510340024,0.38892504505689823,0.3192617213739546,0.19430175941319314,0.5938285423611551,0.7345320532162407,0.9328703703703703,0.8658730158730159,40.111111111111114,90.22222222222223,27.055555555555557,31,0.8724804390058439,1.7269154242740972,1460.7142857142858,7.229797119403548,,,3.58351893845611
adams_marchman_2018,398,551,16,30,13,386.8429085526009,0.40849333022403284,0.27302292524048216,0.27774017348714963,0.7014678308262515,0.7011392993396803,0.9291666666666667,0.9255050505050505,47.43333333333333,85.7,19.466666666666665,36.46666666666667,1.676928148840631,1.6379241351211702,1011.5384615384615,6.8470133459912415,,0.24242424242424243,2.772588722239781
adams_marchman_2018,398,552,16,28,18,779.6691522229828,0.5448611082078584,0.2909892700816449,0.3115650441605647,0.6949708648868753,0.6793637456674526,0.9444444444444444,0.9242424242424243,47.37931034482759,83.96551724137932,20.620689655172413,38.03448275862069,1.3477212046070521,1.4504107396906287,1113.888888888889,6.853175473662567,,0.24242424242424243,2.772588722239781
adams_marchman_2018,398,553,18,32,15,746.3283140689172,0.45166082620786036,0.316365257304936,0.29606581565174683,0.676528988467463,0.6263486274962704,0.9461805555555556,0.9282670454545454,45.875,76.9375,22.25,45.59375,1.3638970659172838,0.8739684577065773,1168.3333333333335,6.946025624880151,,0.27525252525252525,2.8903717578961645
adams_marchman_2018,398,554,18,28,18,769.4058058772673,0.5277858915526331,0.2916336980758045,0.31115743123316,0.6947845359024899,0.6812863795363581,0.9410919540229885,0.9161442006269592,47.03448275862069,82.86206896551724,20.724137931034484,38.06896551724138,1.3080102271773362,1.4648791903393328,1108.3333333333335,6.854828264404509,,0.27525252525252525,2.8903717578961645
adams_marchman_2018,398,555,22,18,8,376.2479235823103,0.4306547097381475,0.29024496270877387,0.28993842512238954,0.7152233125554376,0.7104183385679357,0.9483024691358025,0.888095238095238,49.111111111111114,88.72222222222223,19.166666666666668,35.611111111111114,1.6698879545833327,1.5961174414741959,918.75,6.745680024370444,0.06323529411764706,,3.091042453358316
adams_marchman_2018,398,556,22,14,8,208.71096726608033,0.3138907139436147,0.27726246444156416,0.22866267640168284,0.7510515954368354,0.7785933509416845,0.9255952380952381,0.8612244897959184,50.642857142857146,94.14285714285714,16,26.428571428571427,1.8229329973068942,2.02529176633913,659.375,6.448449965718982,0.06323529411764706,,3.091042453358316
adams_marchman_2018,398,557,24,18,9,368.15512280076246,0.40022566864169595,0.23039214933582594,0.2842869886038928,0.7802871763549513,0.7611016520294928,0.9521604938271605,0.8960317460317461,53.888888888888886,96.72222222222223,14.666666666666666,28.72222222222222,2.077488675192517,2.5463824209764256,702.7777777777778,6.470252246404242,0.11029411764705882,,3.1780538303479458
adams_marchman_2018,398,558,24,14,4,298.8693973404883,0.42385787553251203,0.1583588910545588,0.2468879290309647,0.885713798822579,0.7093494834382992,0.9672619047619048,0.8979591836734694,62,89.71428571428571,7.642857142857143,36,3.2156599697499906,1.92637449985446,731.25,6.529471801868427,0.11029411764705882,,3.1780538303479458
adams_marchman_2018,399,559,17,24,12,215.2781850761869,0.23177791738210346,0.23156507659562245,0.22941743326128838,0.5879203505923689,0.6483033720120709,0.8530982905982906,0.7896270396270396,36.42307692307692,69.03846153846153,25,35.19230769230769,0.5168875513475935,0.9803298284439724,820.8333333333334,6.683775699361556,,0.7095959595959596,2.833213344056216
adams_marchman_2018,399,560,17,28,14,184.0199015754116,0.28524617848149075,0.24924557763239719,0.1814338716635679,0.724330024713557,0.7599593451339731,0.8870370370370371,0.8138888888888889,47.6,80.6,16.266666666666666,26.833333333333332,1.6282143063678656,1.728384123788577,680.3571428571429,6.486408689580792,,0.7095959595959596,2.833213344056216
adams_marchman_2018,399,561,20,24,14,463.41422858253634,0.38985622124614466,0.22775680023165512,0.24470030608544727,0.7138186187897685,0.7582468118601127,0.9086538461538461,0.8572261072261073,46.76923076923077,86.88461538461539,18.653846153846153,26.26923076923077,1.2832069267314192,2.2273476631801654,882.1428571428571,6.698479896734106,,,2.995732273553991
adams_marchman_2018,399,562,20,32,14,418.62953409092717,0.3468321571818144,0.30085017155523736,0.32497899600128327,0.7593167298443032,0.7786354121478442,0.94140625,0.9427083333333334,51.40625,98.625,16.375,25.8125,2.090741825551019,2.4495559087210275,833.9285714285714,6.655523068431099,,,2.995732273553991
adams_marchman_2018,400,563,16,30,12,424.325445069387,0.3205602924428804,0.2926377882148308,0.1703312711112194,0.49005951809200854,0.508158832553164,0.8560185185185185,0.8694444444444445,31.233333333333334,59.333333333333336,30.4,55.43333333333333,0.13107483354940583,0.03756559370507734,1435.4166666666667,7.225130756278352,,0.7196969696969697,2.772588722239781
adams_marchman_2018,400,564,16,30,15,273.96993230922953,0.38426654670547095,0.3072411999699465,0.23520520907057518,0.5865018517161221,0.5554793588964515,0.8815104166666666,0.8520359848484849,37.84375,63.3125,25.625,49.15625,0.647321915144571,0.5172534373352367,691.6666666666666,6.468914033774845,,0.7196969696969697,2.772588722239781
adams_marchman_2018,400,565,19,31,11,818.7851310991736,0.528503794815879,0.21692424521264062,0.22450357940056925,0.4469079349783586,0.45166917982143906,0.8736979166666666,0.8723958333333334,27.96875,52.28125,34.9375,62.875,-0.39998750346226464,-0.18160804460179575,990.9090909090909,6.728376794903815,,0.8409090909090909,2.9444389791664403
adams_marchman_2018,400,566,19,31,15,493.16760408028193,0.4719914365772716,0.2917782430813458,0.26089345008969295,0.59600274362273,0.5617750235326586,0.9153645833333334,0.8622159090909091,39.6875,64.09375,26.21875,49.71875,0.7409498188396535,0.4561425510502107,1025,6.828457850415803,,0.8409090909090909,2.9444389791664403
adams_marchman_2018,400,567,23,17,7,231.32640307994407,0.3402775029265177,0.2743343738245385,0.22739290400415665,0.7334534990958488,0.6077803784499608,0.9035947712418301,0.8323529411764706,48.411764705882355,72.05882352941177,16.647058823529413,44.470588235294116,1.7687011663506589,0.7543289154765964,714.2857142857143,6.523512549080577,0.3088235294117647,,3.1354942159291497
adams_marchman_2018,400,568,23,11,3,14.433756729740644,0.01581880512302722,0.1815889535074615,0.23523528486535214,0.7391653004522262,0.6748582056321585,0.892361111111111,0.775,47.5,72.75,16.75,35.75,1.5255439918653548,1.3907145889770087,916.6666666666666,6.820660746116387,0.3088235294117647,,3.1354942159291497
adams_marchman_2018,400,569,26,16,8,161.4319294846681,0.25842244182821555,0.22823930776167814,0.1749711943367212,0.7681022632421352,0.6545472185790662,0.8940972222222222,0.8214285714285714,50,76.1875,14.375,38.8125,1.9539283071258426,0.7833428760630743,715.625,6.546644106331206,0.4647058823529412,,3.258096538021482
adams_marchman_2018,400,570,26,10,3,104.08329997330664,0.15667258424774105,0.28146329056420916,0.21267729115532688,0.7781598614291766,0.6019937192637881,0.9027777777777778,0.7454545454545455,51.36363636363637,63.09090909090909,13.636363636363637,41.27272727272727,2.134681369102683,0.48076689746059936,691.6666666666666,6.531134908335124,0.4647058823529412,,3.258096538021482
adams_marchman_2018,400,571,32,14,4,193.64916731037084,0.2490797983215908,0.29099911798894684,0.2736366906797011,0.6999837915672278,0.6893111864418913,0.9236111111111112,0.8877551020408163,46.57142857142857,86,19.928571428571427,38.285714285714285,1.3419991678968437,1.435056837326617,800,6.661803368395537,,,3.4657359027997265
adams_marchman_2018,400,572,32,18,5,229.53757862276058,0.35098200248671824,0.30157658092533873,0.2192272800946387,0.6451638112000293,0.6956078792080427,0.9189814814814815,0.9261904761904762,43.55555555555556,91.22222222222223,22.61111111111111,38.44444444444444,1.4485895412278393,1.369822971712494,615,6.370339083955099,,,3.4657359027997265
adams_marchman_2018,400,573,36,14,4,205.52270758564208,0.2657189681794717,0.19108768965066475,0.2523084620412247,0.8583904078211478,0.8778691610824774,0.9573412698412699,0.6107142857142858,59.57142857142857,75.28571428571429,9.357142857142858,10.214285714285714,3.009188357177912,3.6378920911121506,693.75,6.51356175257831,,,3.58351893845611
adams_marchman_2018,400,574,36,18,6,546.3515351859094,0.5572634077725637,0.28933712934142547,0.20306767639065804,0.6976367528822356,0.677999723409425,0.8842592592592593,0.8809523809523809,45.44444444444444,84.5,18.22222222222222,38.833333333333336,1.7329929913117188,1.2415055146815157,1025,6.807733142991827,,,3.58351893845611
adams_marchman_2018,401,575,16,32,17,936.0920800610062,0.4933180543860515,0.35832027598094257,0.26365875244540404,0.5840598630105643,0.7016384080207966,0.9574652777777778,0.9472064393939394,40.40625,88.1875,28.53125,36.84375,0.7892923341941434,1.5823851790754961,1779.4117647058824,7.363952581013743,,0.3106060606060606,2.772588722239781
adams_marchman_2018,401,576,16,29,15,614.7347472884622,0.46497099974084954,0.31420940962884564,0.2764960799285247,0.6563547257945037,0.6989509717245237,0.9226851851851852,0.8800505050505051,44.03333333333333,82.5,22.4,33.666666666666664,1.0778131309615138,1.671643333692856,1076.6666666666667,6.867004809959755,,0.3106060606060606,2.772588722239781
adams_marchman_2018,401,577,18,27,8,432.5872125116176,0.3545860386694435,0.29951432026885555,0.2576559461360324,0.7218025437333047,0.7533918705592226,0.8970306513409961,0.8074712643678161,46.758620689655174,79.96551724137932,17.82758620689655,26.620689655172413,1.8375520204621079,2.1292080362482393,934.375,6.7742607454777835,,0.5,2.8903717578961645
adams_marchman_2018,401,578,18,6,1,,,0.3856616529007354,0.3339056075149584,0.6433954933954934,0.6187796837895262,0.8865740740740741,0.8598484848484849,44.333333333333336,73.33333333333333,19.5,40.166666666666664,1.1830180998868771,0.2150544418900345,,,,0.5,2.8903717578961645
adams_marchman_2018,401,579,22,17,7,250.7726156539122,0.3076814481586152,0.30870401927767166,0.28001650763808367,0.7115109703495441,0.7819581175627996,0.9607843137254902,0.8831932773109243,49.529411764705884,98.17647058823529,19.647058823529413,25.470588235294116,1.5837269633674103,2.4477348311071707,789.2857142857143,6.629929119199999,0.43970588235294117,,3.091042453358316
adams_marchman_2018,401,580,23,12,3,253.7222891273055,0.33561624762581443,0.2145189034827761,0.23789162299617564,0.8215888118701418,0.7803718831864088,0.8819444444444444,0.8017857142857143,52.25,88.08333333333333,11.25,24.166666666666668,2.5646745048107613,2.6813039034080357,750,6.582308829735846,0.4852941176470588,,3.1354942159291497
adams_marchman_2018,401,581,24,16,7,142.46971273789757,0.2084241172537374,0.19901246784880736,0.2918210954306412,0.7917124790947112,0.8137648710180455,0.9485294117647058,0.8474789915966386,54.64705882352941,97.41176470588235,13.647058823529411,21.235294117647058,2.2831515511389666,2.9324689568239344,746.4285714285714,6.597767644004435,0.5308823529411765,,3.1780538303479458
adams_marchman_2018,401,582,24,5,1,,,0.20264366046091845,0.25423939521497735,0.909375,0.8014408491696627,0.9527777777777777,0.8542857142857143,62.8,97,5.8,22.6,3.991906149371182,2.7276183634084235,,,0.5308823529411765,,3.1780538303479458
adams_marchman_2018,401,583,29,12,6,734.7902194957869,0.584203328928665,0.2640265036517972,0.2929152384886468,0.7869320748827391,0.790070284729313,0.9206349206349207,0.5811224489795919,52.142857142857146,63.785714285714285,14.142857142857142,17.571428571428573,1.9123942169726098,2.456801716350972,916.6666666666667,6.642914075184409,0.7779411764705882,,3.367295829986474
adams_marchman_2018,401,584,30,18,8,346.9252698451683,0.35020260472141534,0.24680826341934223,0.2227121799039987,0.6384887121688384,0.6957689486002998,0.9135802469135802,0.8615079365079366,42.55555555555556,85.05555555555556,23.22222222222222,35.55555555555556,1.1114900304069744,1.2946811822931668,962.5,6.815170011508785,0.7779411764705882,,3.4011973816621555
adams_marchman_2018,401,585,36,13,7,120.26755886059097,0.20611258500446486,0.1522886433474964,0.19371411522711707,0.8626378024300534,0.9321481961367184,0.9345238095238095,0.5974489795918367,58.357142857142854,76.92857142857143,8.928571428571429,6.714285714285714,2.5495346824759855,4.261624125025122,571.4285714285714,6.3297917909671435,,,3.58351893845611
adams_marchman_2018,401,586,36,16,3,578.9717897560583,0.7400259774349514,0.23689422991429496,0.23553258836427018,0.6539759819174111,0.6976374688536943,0.8984375,0.89375,42.8125,87.8125,21.875,37.3125,1.2970229705635918,1.5439414261662825,1016.6666666666666,6.769723279879657,,,3.58351893845611
adams_marchman_2018,402,587,15,31,19,289.61685720380325,0.31141692384957675,0.20414360351821503,0.2239084079266094,0.7042806950050278,0.6897671242676621,0.9206989247311828,0.9078690127077224,47.03225806451613,83.38709677419355,19.258064516129032,36.45161290322581,1.3778774456929932,1.4166135550585026,931.578947368421,6.7916064162731,,0.3333333333333333,2.70805020110221
adams_marchman_2018,402,588,15,31,16,708.1942265367602,0.5177501095442762,0.3645504336864961,0.3025307095879037,0.5542001051151073,0.5943085027024145,0.94140625,0.8757102272727273,37.84375,68.46875,29.9375,47.125,0.5235039802868338,0.7649263122779384,1401.5625,7.121801124058396,,0.3333333333333333,2.70805020110221
adams_marchman_2018,402,589,18,31,12,507.2579285340014,0.4206460566760691,0.2833681194053948,0.16130829403909297,0.6457384913304858,0.7011959966457842,0.9314516129032258,0.8978494623655914,43.83870967741935,83.83870967741936,23.225806451612904,34.67741935483871,1.104496485739782,1.153731063086087,1066.6666666666667,6.885279786752933,,0.5858585858585859,2.8903717578961645
adams_marchman_2018,402,590,18,32,15,89.57571949925673,0.12882249354081737,0.1768780642373508,0.24809543657328867,0.8241590209088164,0.7477694690227819,0.9344618055555556,0.8937026515151515,55.8125,87.96875,11.46875,30,2.3315679250720804,1.8037659230417589,696.6666666666666,6.538599743718667,,0.5858585858585859,2.8903717578961645
adams_marchman_2018,402,591,23,13,7,198.13114944640174,0.25207860086161366,0.17187039790923733,0.24841499124212538,0.7062368549790461,0.8124001348222293,0.938034188034188,0.8769230769230769,48,101.53846153846153,19.53846153846154,21.23076923076923,1.14809267748199,2.390181094347749,778.5714285714286,6.630107277298256,0.6088235294117647,,3.1354942159291497
adams_marchman_2018,402,592,26,16,9,506.0742150229659,0.4896401213213151,0.2503477114792904,0.21399919641178114,0.7694652850642872,0.8527927250231002,0.9534313725490196,0.8247899159663865,53.11764705882353,100.70588235294117,15.529411764705882,14.764705882352942,1.8310975648713228,2.78799387395469,788.8888888888889,6.545525864202577,0.7602941176470588,,3.258096538021482
adams_marchman_2018,402,593,26,12,5,257.0262632494975,0.4110680015415618,0.3019849586482609,0.3140027386109829,0.7312840962998103,0.6847315006665439,0.8547008547008547,0.7549450549450549,47.23076923076923,72,14.307692307692308,33.69230769230769,1.8365250886749165,1.8590581949941842,620,6.36184943242627,0.7602941176470588,,3.258096538021482
adams_marchman_2018,402,594,30,11,4,171.99806200458576,0.2986532772136209,0.2699132512700456,0.2378210250278725,0.8710122269823762,0.84722063223103,0.8988095238095238,0.5372448979591837,55.857142857142854,65,8.857142857142858,10.214285714285714,3.0161490287923227,3.2281924448851003,525,6.227756210951984,0.8838235294117647,,3.4011973816621555
adams_marchman_2018,402,595,30,17,6,650.4645775648868,0.6659205333388143,0.3551652462902249,0.17894644077950833,0.746585049966026,0.8194989491467404,0.9575163398692811,0.896218487394958,52.529411764705884,102.29411764705883,16.41176470588235,23.176470588235293,2.63920600374524,2.7742809814570113,1345.8333333333333,7.054345303950235,0.8838235294117647,,3.4011973816621555
adams_marchman_2018,402,596,35,11,8,283.788150361699,0.39302928003738535,0.1406569606053557,0.09914633515125916,0.9077170570900769,0.9559203142536477,0.9186507936507936,0.5561224489795918,59.92857142857143,75.07142857142857,6.214285714285714,2.7857142857142856,3.103489937795258,4.418382361786188,550,6.228968076599307,,,3.5553480614894135
adams_marchman_2018,402,597,35,17,6,650.4645775648868,0.6659205333388143,0.3549499457118345,0.1774059028351365,0.747463610925683,0.8214268897933136,0.9566993464052288,0.8936974789915967,52.529411764705884,102.11764705882354,16.352941176470587,23,2.6423701093174987,2.778385045475911,1345.8333333333333,7.054345303950235,,,3.5553480614894135
adams_marchman_2018,403,598,16,32,11,1131.5616722838477,0.7480855483526755,0.4419426962917998,0.38815548234795516,0.5326960549510483,0.562446576210279,0.9717881944444444,0.9339488636363636,37.28125,70.625,32.6875,52.65625,0.21980382925551736,0.5537950161788637,1752.2727272727273,7.239743200105387,,0.26515151515151514,2.772588722239781
adams_marchman_2018,403,599,16,31,11,478.53944456021594,0.4754345711141489,0.3243732335480388,0.28892462925153695,0.4606910506656272,0.48710716990533054,0.9189068100358423,0.8641251221896383,30.709677419354836,54.61290322580645,35.45161290322581,59.45161290322581,-0.18183691337836794,-0.08278614797708461,1200,7.000117215452429,,0.26515151515151514,2.772588722239781
adams_marchman_2018,403,600,18,32,12,330.7117553875506,0.2742580920582032,0.3248081170731792,0.3440153058652403,0.6044331459447881,0.5582161148159385,0.9188368055555556,0.9330018939393939,39.90625,69.90625,26.25,53.25,0.8571425180685656,0.6045296217020157,1077.0833333333333,6.945421012361343,,0.8181818181818182,2.8903717578961645
adams_marchman_2018,403,601,18,32,20,278.400034029036,0.297586228848695,0.22282134803597514,0.25661775748140764,0.6943984735225909,0.7292338941955574,0.9283854166666666,0.9306344696969697,46.875,90.78125,19.96875,32.0625,1.4353164179625966,1.8046157508357816,982.5,6.8496020772356285,,0.8181818181818182,2.8903717578961645
adams_marchman_2018,403,602,23,35,13,268.40877264122577,0.3500584288732296,0.28435088259724906,0.288846940844914,0.6926354699687567,0.6464841210874623,0.8964285714285715,0.8575510204081632,45.08571428571429,77.82857142857142,19.457142857142856,42.22857142857143,1.5610611109194366,1.0847633079722805,888.4615384615385,6.738947127020673,0.027205882352941177,,3.1354942159291497
adams_marchman_2018,403,603,23,23,8,924.9276033444842,0.6762368425744972,0.4174769249053664,0.35665950092947335,0.49503005148421475,0.5642981241751176,0.9114583333333334,0.7863095238095238,33.375,62.70833333333333,32.25,47.375,-0.29362984083821103,0.4642278092558545,1556.25,7.165699867908696,0.027205882352941177,,3.1354942159291497
adams_marchman_2018,403,604,30,13,6,310.64449134018133,0.3738337350503865,0.17442527137824967,0.19330976716683262,0.802360867766587,0.7623970829462604,0.8675213675213675,0.8824175824175824,50.30769230769231,95.6923076923077,12.153846153846153,27.846153846153847,2.074852965434075,1.857470034810473,750,6.558044508854628,0.3352941176470588,,3.4011973816621555
adams_marchman_2018,403,605,30,13,2,512.652416360247,0.29944813490561084,0.35424489843787316,0.35297660124633434,0.5037621133673948,0.5819763814173071,0.8918650793650793,0.7816326530612245,33,68.64285714285714,31.214285714285715,40.785714285714285,0.03236276825809153,0.8636518390883794,1737.5,7.437950816906093,0.3352941176470588,,3.4011973816621555
adams_marchman_2018,403,606,36,10,6,297.06901555025894,0.3985788871122058,0.28074350107017093,0.2371783550718954,0.7883251419923097,0.8878595371720815,0.8981481481481481,0.555952380952381,51.25,68.83333333333333,13.416666666666666,9,2.35534905914141,3.63670076001474,650,6.4045031452789045,,,3.58351893845611
adams_marchman_2018,403,607,36,10,4,720.0983729093315,0.7297461621214789,0.3324079270319647,0.30044945149093016,0.37989943964081896,0.550771312314712,0.8597222222222223,0.8578571428571429,24.4,65.4,37.5,54.7,-0.9200347624930472,0.1409938932395694,1312.5,7.015209328725136,,,3.58351893845611
adams_marchman_2018,404,608,16,32,13,925.7230368882698,0.4603310830723275,0.4077983766841223,0.35360615135841966,0.45988660890268407,0.5254182548374583,0.9518229166666666,0.9256628787878788,31.40625,63.96875,37.125,58.21875,-0.3206924690974756,-0.06074698865988002,1953.8461538461538,7.4778565475262635,,0.4015151515151515,2.772588722239781
adams_marchman_2018,404,609,16,31,9,1191.7977783350848,0.6807790194510247,0.3900470687515655,0.36134828323044604,0.5079933423967924,0.49612370836397834,0.9318576388888888,0.9019886363636364,34.28125,59.1875,32.8125,59.875,0.05814455583557346,-0.030750441396412132,1577.7777777777778,7.140675320571509,,0.4015151515151515,2.772588722239781
adams_marchman_2018,404,610,18,31,14,925.4268394448235,0.5689683409216105,0.3205841009691088,0.3307136543206579,0.4530946659706927,0.48456213037716706,0.8927951388888888,0.8937026515151515,28.75,57.375,35.53125,60.59375,-0.4130550675332923,-0.22533609506858093,1414.2857142857142,7.092518432759959,,0.5,2.8903717578961645
adams_marchman_2018,404,611,18,31,15,749.1582578054488,0.5378312333510541,0.3358816052368459,0.2926887182452162,0.5973302134798467,0.5887571068206106,0.8790322580645161,0.8851417399804496,38.806451612903224,71,24.483870967741936,45.83870967741935,0.931450897466919,1.1462547827868257,1271.6666666666665,7.00614348190393,,0.5,2.8903717578961645
adams_marchman_2018,404,612,21,17,8,218.12410458268934,0.3347440981881499,0.17479015141704912,0.24977009490545457,0.7284923955015374,0.7068658929284601,0.9044117647058824,0.8642857142857143,47.88235294117647,85.94117647058823,17.235294117647058,35.05882352941177,1.5007938211648748,1.6095114007880933,696.875,6.499937589042354,0.4661764705882353,,3.044522437723423
adams_marchman_2018,404,613,21,13,5,241.3503677229434,0.3595123758209928,0.31963437098697234,0.2749736575388637,0.6819250507220432,0.5569408033851446,0.8759920634920635,0.7974489795918367,44.21428571428571,63.357142857142854,18.857142857142858,48.285714285714285,1.797337771050575,0.7646129848248479,830,6.6766015291051435,0.4661764705882353,,3.044522437723423
adams_marchman_2018,404,614,23,18,8,169.26179005147196,0.22532270671768184,0.2560343801259203,0.18285532519538433,0.726507549874998,0.7742206983942305,0.8896604938271605,0.801984126984127,47,87.72222222222223,17.055555555555557,24.555555555555557,1.5275706460884535,1.5768967223027441,721.875,6.559081377390076,0.5514705882352942,,3.1354942159291497
adams_marchman_2018,404,615,24,13,4,246.22144504490262,0.3694473529956748,0.2303528674876402,0.2405582886932493,0.8076129594212317,0.7542466643701631,0.9126984126984127,0.8025510204081633,53.714285714285715,86.21428571428571,12,26.142857142857142,2.6618737589785697,2.202473959001837,687.5,6.48266180798483,0.5514705882352942,,3.1780538303479458
adams_marchman_2018,404,616,30,13,5,528.6775955154521,0.4584683889385567,0.25991450369086333,0.226796118079399,0.7138777580781606,0.7751274570496928,0.922008547008547,0.9120879120879121,47.69230769230769,99.84615384615384,18.692307692307693,27.846153846153847,1.5931069851301556,2.2243205221819244,945,6.754738617152484,0.7602941176470588,,3.4011973816621555
adams_marchman_2018,404,617,30,18,9,569.9658859187198,0.5735535611794305,0.32880037502971965,0.20274224618437903,0.614850631022559,0.7644117364988596,0.8958333333333334,0.8738095238095238,40,93.38888888888889,24.5,28.944444444444443,1.0370389630159513,1.9795961062314151,938.8888888888889,6.691660260787041,0.7602941176470588,,3.4011973816621555
adams_marchman_2018,404,618,36,12,7,213.94814681087922,0.2724297027513754,0.1912363052677073,0.15331659262117234,0.8156671228826544,0.8355084016656192,0.8571428571428571,0.5168367346938776,51.142857142857146,59.214285714285715,10.571428571428571,13.142857142857142,2.1655572431833456,2.367263233548521,757.1428571428571,6.597007620936135,,,3.58351893845611
adams_marchman_2018,404,619,36,18,6,644.4797643577854,0.6486514971783713,0.32962574207328216,0.17229845953168102,0.6762867938257087,0.7773834765324646,0.9135802469135802,0.8706349206349207,44.77777777777778,95.88888888888889,21,26,1.6018837820283436,2.0408091726064232,1204.1666666666667,6.93869441429835,,,3.58351893845611
adams_marchman_2018,405,620,16,31,16,939.7251371190054,0.5307184080067175,0.367466853365657,0.3359763873779658,0.5261761363347538,0.6414325677243657,0.942652329749104,0.9115347018572825,35.483870967741936,77.25806451612904,32.38709677419355,43.064516129032256,0.0825353184049283,0.9618233567613974,1600,7.2377254168668825,,0.6565656565656566,2.772588722239781
adams_marchman_2018,405,621,16,30,15,393.29953446390425,0.3423392564405272,0.23509804529726622,0.23238979963320394,0.785164257365442,0.8042130370075646,0.9198028673835126,0.8912512218963832,52.354838709677416,95.87096774193549,13.870967741935484,21.774193548387096,2.142138309521196,2.6946599404476124,881.6666666666666,6.717926236604478,,0.6565656565656566,2.772588722239781
adams_marchman_2018,405,622,18,29,8,410.7783335154305,0.4915416427826493,0.2660300952220304,0.24216038709751808,0.7848338198927043,0.7172037947850461,0.9412037037037037,0.8782828282828283,54.03333333333333,83.03333333333333,13.733333333333333,32.9,2.540634995671379,1.660305869947376,859.375,6.654345677351508,,0.8080808080808081,2.8903717578961645
adams_marchman_2018,405,623,18,18,4,248.746859276655,0.3555810285032666,0.33653066696488915,0.3147724282227773,0.6306171606751952,0.5001367604450554,0.8270833333333334,0.7772727272727272,37.15,49,22.4,53.6,1.0664195285953304,0.05169260773801314,837.5,6.688262312089132,,0.8080808080808081,2.8903717578961645
adams_marchman_2018,405,624,21,16,8,192.92740122350983,0.20001019010945512,0.2748768541496603,0.27909767673943636,0.7215737931223006,0.7789168485175952,0.9513888888888888,0.8540178571428572,49.6875,94.375,18.8125,25.1875,1.6698379567903836,2.5074649690282054,946.875,6.835532630406929,0.5691176470588235,,3.044522437723423
adams_marchman_2018,405,625,21,6,1,,,0.13447658219271388,0.12181504272515525,0.9225463591135233,0.8573166859954225,0.9490740740740741,0.775,63.166666666666664,91.83333333333333,5.166666666666667,16.666666666666668,3.708517437936875,2.6060694292140614,,,0.5691176470588235,,3.044522437723423
adams_marchman_2018,405,626,24,17,8,213.36483677360843,0.25379077882791196,0.20817101394885662,0.288217223974317,0.8418023497081988,0.7250634523148611,0.9544753086419753,0.8535714285714285,58.22222222222222,87.88888888888889,10.5,31.61111111111111,2.7962185626464353,1.8130495941350866,690.625,6.505513112789551,0.7485294117647059,,3.1780538303479458
adams_marchman_2018,405,627,24,11,7,443.8736413933695,0.38302769788926333,0.249120734365624,0.20885857635127436,0.7153077046288139,0.6717834211727088,0.9038461538461539,0.7483516483516484,47.46153846153846,71.15384615384616,17.615384615384617,33.61538461538461,1.5714287982056743,1.1318111653362184,892.8571428571429,6.719446531252519,0.7485294117647059,,3.1780538303479458
adams_marchman_2018,405,628,31,14,5,334.4772040064913,0.4272573005375288,0.21100024004430873,0.2260058113806156,0.7995865537357134,0.7431194424868887,0.9365079365079365,0.871938775510204,54.57142857142857,94,12.857142857142858,28.071428571428573,2.499805449523887,1.7912319060357982,800,6.613671796314467,0.8955882352941177,,3.4339872044851463
adams_marchman_2018,405,629,30,18,5,622.8964600958975,0.6800415148925311,0.2591734202988067,0.19042199345766164,0.5917491429509371,0.7536156235320751,0.8742283950617284,0.8932539682539683,37.333333333333336,94.88888888888889,25.61111111111111,30.166666666666668,0.7467153027860952,1.790521250202181,910,6.6258641106213965,0.8955882352941177,,3.4011973816621555
adams_marchman_2018,405,630,36,14,8,103.45590848279281,0.18922508949783162,0.2856917040354766,0.32772587025880656,0.7473236099650779,0.7148753927932492,0.9305555555555556,0.5913265306122448,50.85714285714286,60.285714285714285,16.142857142857142,22.5,1.880087429379463,2.222091925869884,540.625,6.276976245662028,,,3.58351893845611
adams_marchman_2018,405,631,36,18,11,195.9243824447678,0.29494671243504683,0.1629086917089749,0.14790798201375552,0.6751430962498968,0.8569333243669227,0.8341049382716049,0.8801587301587301,40.666666666666664,106.44444444444444,19.38888888888889,16.77777777777778,0.8794290019985274,2.3593277645765074,731.8181818181819,6.558778572170711,,,3.58351893845611
adams_marchman_2018,406,632,17,29,7,1032.4641121400507,0.9072691456612958,0.44689031312251,0.3596070800275447,0.4843825156211047,0.5059628806546718,0.9046934865900383,0.8960292580982236,30.275862068965516,61.931034482758626,34.86206896551724,56.3448275862069,-0.16913805111225128,0.2565664398666922,1882.142857142857,7.283818075022143,,0.51010101010101,2.833213344056216
adams_marchman_2018,406,633,17,25,14,572.663072412998,0.5368795052351336,0.29398862937132897,0.2496852433636254,0.5382024141432107,0.5729603043282425,0.9342948717948718,0.8916083916083916,36.26923076923077,68.53846153846153,31,49.15384615384615,0.18969909476951208,0.36763513768105205,1016.0714285714286,6.786120498507129,,0.51010101010101,2.833213344056216
adams_marchman_2018,406,634,19,28,8,196.14021041810153,0.23559234556606937,0.22640617358325876,0.21652964133247382,0.7318591007393517,0.6339501014270275,0.9396551724137931,0.9140543364681296,49.827586206896555,76.79310344827586,17.82758620689655,43.86206896551724,1.616805300591426,0.9086237638036097,853.125,6.72498978053875,,0.6439393939393939,2.9444389791664403
adams_marchman_2018,406,635,19,27,12,203.13592627955927,0.30772797109312067,0.23186046893280304,0.2067265069406066,0.625376262360529,0.5535090402223473,0.928639846743295,0.8605015673981191,41.689655172413794,64,25.17241379310345,49.58620689655172,0.4974479064048691,0.2406780561603473,693.75,6.500139695284554,,0.6439393939393939,2.9444389791664403
adams_marchman_2018,406,636,22,16,8,227.14748984494005,0.25340960613953695,0.23478172450977558,0.2595672047731312,0.7388628507669053,0.7223541106074802,0.9411764705882353,0.85,50.411764705882355,85.88235294117646,17.352941176470587,33.11764705882353,1.9569112355185256,1.7387778694059335,809.375,6.6663214708695095,0.03823529411764706,,3.091042453358316
adams_marchman_2018,406,637,22,10,4,166.30168369562588,0.31294827922808033,0.2088307538338798,0.27980148104861735,0.8543820606723802,0.5997016332752613,0.9340277777777778,0.805952380952381,57.5,71,9.75,41.833333333333336,3.014853193224752,1.1104329966493391,543.75,6.262180530032975,0.03823529411764706,,3.091042453358316
adams_marchman_2018,406,638,24,15,8,173.68768152717598,0.19608946319385992,0.21549751365679465,0.27360377469563546,0.7773679874248586,0.7405423308420627,0.8774509803921569,0.8004201680672269,49.94117647058823,82.41176470588235,13.235294117647058,29.647058823529413,2.1781384358042306,2.1688480015288287,915.625,6.803224520097446,0.06764705882352941,,3.1780538303479458
adams_marchman_2018,406,639,24,12,4,126.44992421244599,0.1990653041550643,0.3422872360819017,0.3109167509641363,0.7631759406933312,0.7864771599808617,0.9519230769230769,0.8516483516483516,53.07692307692308,92.15384615384616,15.461538461538462,27.076923076923077,2.263271322380115,2.68911667787693,656.25,6.472012952717481,0.06764705882352941,,3.1780538303479458
adams_marchman_2018,406,640,30,13,3,90.13878188659973,0.15587324591670532,0.2146957541951932,0.17893675748209353,0.837858496195812,0.8019612627739713,0.8878968253968254,0.838265306122449,54.642857142857146,92.71428571428571,9.285714285714286,24.642857142857142,2.7051816847855816,2.5143425454160213,600,6.389024146343708,0.49411764705882355,,3.4011973816621555
adams_marchman_2018,406,641,30,12,6,803.3393844862,0.6988014733848815,0.3963982105004927,0.34006982100836797,0.5275758452528109,0.6858325589353164,0.9351851851851852,0.9410714285714286,36.083333333333336,90.91666666666667,31.25,40.833333333333336,0.5226589902256593,1.5428298626811277,1304.1666666666667,6.985653426591507,0.49411764705882355,,3.4011973816621555
adams_marchman_2018,406,642,35,12,5,252.73503912200223,0.3607420013939282,0.17095556985400687,0.12475263604477382,0.8032000962958821,0.8992748328309733,0.9241452991452992,0.5818681318681319,53.69230769230769,73.46153846153847,12.846153846153847,8,1.8708088943534007,3.1216022471951996,705,6.506888465143531,,,3.5553480614894135
adams_marchman_2018,406,643,35,16,5,436.3914527118972,0.39643045177376146,0.3334794511794334,0.16556247068316618,0.483533412241747,0.7354830319898693,0.8602430555555556,0.8785714285714286,29.9375,91,32,32,0.659333887938032,1.4294294190971506,1255,7.077120297462143,,,3.5553480614894135
adams_marchman_2018,407,644,15,32,18,265.40756671690474,0.2729565835091332,0.20806363371035838,0.18310121562931034,0.6752454745200612,0.6645357046240653,0.939236111111111,0.8986742424242424,45.84375,78.65625,21.78125,39.96875,1.0549612635665233,0.9859413030552838,916.6666666666666,6.784190725639669,,,2.70805020110221
adams_marchman_2018,407,645,15,29,13,612.5555966394878,0.5273663367761366,0.26713515621947254,0.2209075447662384,0.6338330226092981,0.6260576299191736,0.85,0.8174242424242424,39.233333333333334,68.96666666666667,21.966666666666665,38.93333333333333,0.6219702058934554,0.8405578232602737,980.7692307692307,6.745812406208946,,,2.70805020110221
adams_marchman_2018,407,646,18,20,8,233.6626078038895,0.31243576853237964,0.27117448478071465,0.22282786972115903,0.6588879684285912,0.6516226819183667,0.910024154589372,0.8188405797101449,43.47826086956522,70.43478260869566,22.043478260869566,37.65217391304348,1.1026373631220079,0.6799620163918914,656.25,6.440282760899711,,,2.8903717578961645
adams_marchman_2018,407,647,18,29,13,241.20756568480547,0.32662201728696727,0.2210408663244336,0.2846035494774538,0.7853726811051246,0.7171012142573671,0.939516129032258,0.8448191593352884,53.61290322580645,81.35483870967742,14.03225806451613,30.161290322580644,2.1549036753562527,1.9929151569515935,709.6153846153846,6.5143749028342945,,,2.8903717578961645
adams_marchman_2018,407,648,22,15,6,207.01247949499728,0.3049996936261268,0.1382040932128587,0.14800562975155807,0.6939088036030681,0.7130387619104934,0.9175925925925926,0.8433333333333334,45.86666666666667,84.2,20.2,33.86666666666667,0.8832668505854635,1.1876614565352515,654.1666666666666,6.444007353245632,,,3.091042453358316
adams_marchman_2018,407,649,22,8,7,500.1487873861232,0.4762351874124544,0.2586393867334991,0.25905932886338306,0.7191876029055194,0.650685082432243,0.7696759259259259,0.631547619047619,39.833333333333336,60.583333333333336,15.583333333333334,27.833333333333332,1.444568815448883,1.1350049273200693,757.1428571428571,6.507833562591331,,,3.091042453358316
adams_marchman_2018,408,650,17,29,13,686.5115271596516,0.49169956848066165,0.33411013856708965,0.27245474439145484,0.5860511957582715,0.6305096200719333,0.924074074074074,0.877020202020202,39,73.13333333333333,27.533333333333335,42.63333333333333,0.6264358269927128,0.7524374840029531,1198.076923076923,6.967868969150748,,0.6123737373737373,2.833213344056216
adams_marchman_2018,408,651,17,28,14,137.49375610198803,0.22879804222391886,0.247627227571991,0.25183591819266093,0.698759093605445,0.7148314144650141,0.8839285714285714,0.8814935064935066,45.67857142857143,83.07142857142857,17.964285714285715,33.285714285714285,1.4273303998659879,1.6460893203438705,616.0714285714286,6.399610707862817,,0.6123737373737373,2.833213344056216
adams_marchman_2018,408,652,20,23,12,1135.0039213655393,0.6840522284981689,0.3412869145339934,0.2718888761585122,0.6419321739307445,0.5888219415011191,0.9214743589743589,0.7875874125874126,42.26923076923077,63.153846153846146,24.076923076923077,40.80769230769231,0.6707977182238266,0.724789929915987,1339.5833333333333,6.947755262949426,,,2.995732273553991
adams_marchman_2018,408,653,20,20,14,758.5682725871312,0.6660925096691035,0.37886824714669554,0.31140970824644637,0.5942786564789111,0.6239431099404894,0.8541666666666666,0.7957988980716253,37.86363636363636,63.81818181818182,23.636363636363637,41.22727272727273,0.4232489836496833,1.0511255434336213,992.8571428571429,6.673480036867155,,,2.995732273553991
adams_marchman_2018,408,654,22,18,10,227.0126036638103,0.28460633325189827,0.15672216850592424,0.2609605900182876,0.7932148648517919,0.7413741499702445,0.9382716049382716,0.8924603174603175,53.833333333333336,93.27777777777777,13.722222222222221,31.666666666666668,1.7063009963027957,2.1629973231027586,717.5,6.536816245590965,0.26544117647058824,,3.091042453358316
adams_marchman_2018,408,655,22,10,4,299.30474993446614,0.3660728043634503,0.228055917941123,0.29601397245881406,0.5659150575166818,0.5255455236580804,0.8986111111111111,0.5892857142857143,37.1,43.7,27.6,38.8,0.5652396702748214,0.37330005574756775,825,6.665694744605573,0.26544117647058824,,3.091042453358316
adams_marchman_2018,408,656,23,13,6,268.52219026863804,0.30555186296610337,0.20745695121801958,0.16470263038071112,0.813302640785213,0.8765654274033207,0.9325396825396826,0.6081632653061224,55.142857142857146,75.64285714285714,12,9.5,2.4317726671008995,3.2107545279519223,745.8333333333334,6.571142501592505,0.26544117647058824,,3.1354942159291497
adams_marchman_2018,408,657,23,9,4,1134.3133018115705,0.7816583545161,0.4317843195784397,0.28020536313242345,0.6487873400105199,0.7200589868630635,0.9555555555555555,0.815,44.7,79.1,24.1,35,1.2144157767219323,2.3377696908748873,1175,6.7968151814246704,0.26544117647058824,,3.1354942159291497
adams_marchman_2018,408,658,29,9,3,166.45820296198482,0.21939876425862245,0.3153918224633476,0.3260773806497915,0.7271419677468381,0.8297351973822562,0.9361111111111111,0.585,49.3,64.7,18.1,17.2,1.58761058733225,2.806933914363486,741.6666666666666,6.592601242590659,0.5058823529411764,,3.367295829986474
adams_marchman_2018,408,659,29,18,6,731.3372455076159,0.5634581817705814,0.4073268543605669,0.312023323913269,0.5418001196517716,0.6731451227883419,0.9429012345679012,0.915079365079365,37,86.11111111111111,30.88888888888889,42,0.3837647581697467,1.512342325530448,1954.1666666666667,7.477590613111318,0.5058823529411764,,3.367295829986474
adams_marchman_2018,408,660,38,9,5,240.8318915758459,0.3079911642869302,0.2873136376518793,0.35694914226503843,0.7268933205107264,0.7885598075471493,0.8861111111111111,0.5657142857142857,46.9,61.1,16.9,18.1,1.8814706680754874,2.6271888969637467,910,6.779203931977329,,,3.6375861597263857
adams_marchman_2018,408,661,38,14,7,666.9939672747817,0.5579792978267343,0.3963081668647757,0.20859513381145592,0.5850552617488508,0.7634020181766853,0.9148148148148149,0.8076190476190476,38.8,83.4,27.066666666666666,29.666666666666668,0.5843057918299439,1.978174166008189,1346.4285714285713,7.081234426438881,,,3.6375861597263857
adams_marchman_2018,409,662,15,8,5,376.497011940334,0.4107644468451206,0.25415463927473375,0.17420710785577886,0.6689260249554366,0.653311261595929,0.8975694444444444,0.8390151515151515,42.875,71,21.75,39.75,1.171125768649353,0.8934600435766575,1115,6.957798796329279,,0.4292929292929293,2.70805020110221
adams_marchman_2018,409,663,15,13,8,1122.079542635013,0.8129779196042184,0.3382527050015966,0.2596526435793337,0.5547505923560895,0.6075187724066796,0.8923611111111112,0.8044507575757576,36.0625,65.4375,28.1875,40.75,0.15218761267615963,0.7861855055525883,1356.25,6.921147903743291,,0.4292929292929293,2.70805020110221
adams_marchman_2018,409,664,18,23,11,424.3845811610887,0.3457032354952393,0.3470212336875707,0.2948717138238955,0.6555194907603266,0.6631548391446777,0.9006410256410257,0.8234265734265734,43.53846153846154,70.57692307692308,21.307692307692307,38.11538461538461,1.1827304878998477,1.3520920131503495,1095.4545454545455,6.940902459253159,,0.7146464646464646,2.8903717578961645
adams_marchman_2018,409,665,18,30,14,193.05418302232556,0.28769567837744137,0.21649134536592174,0.24480625462754357,0.6568401777566887,0.6146854446892711,0.91015625,0.884469696969697,43.375,72.78125,22.15625,43.96875,1.021202977140962,0.9248720800657737,783.9285714285714,6.629861174779129,,0.7146464646464646,2.8903717578961645
adams_marchman_2018,409,666,21,18,10,311.09126920853595,0.33129533629130964,0.26938050477135866,0.23272267582497394,0.5839921669080916,0.576581582847532,0.9205246913580247,0.8496031746031746,39.27777777777778,68.38888888888889,27,50.55555555555556,0.777774678940722,0.5806358794616792,780,6.6039351877171875,0.4338235294117647,,3.044522437723423
adams_marchman_2018,409,667,21,6,2,371.23106012293744,0.6190498808997674,0.21147087612557516,0.17931478280769803,0.6996683985155567,0.6276453975254513,0.7738095238095238,0.6816326530612244,37.714285714285715,61.142857142857146,18,34.285714285714285,1.3596060748263983,0.5482859857137323,637.5,6.364660394647361,0.4338235294117647,,3.044522437723423
adams_marchman_2018,409,668,24,17,10,217.3067468400883,0.3167795625767696,0.17830299881329437,0.2526104441805249,0.702993456293469,0.7078850461180914,0.8962418300653595,0.8752100840336134,45.88235294117647,87.17647058823529,18.647058823529413,35.35294117647059,1.157167055412349,1.3744136738217927,700,6.5069951319983765,0.6426470588235295,,3.1780538303479458
adams_marchman_2018,409,669,24,10,4,137.68926368215256,0.20766707626142733,0.1844475249242523,0.27581250824231784,0.7922779322648237,0.806646511053238,0.9116161616161617,0.8155844155844155,52.72727272727273,93.81818181818181,12.909090909090908,20.363636363636363,2.1180910790920033,2.6992572937637673,662.5,6.479830836144583,0.6426470588235295,,3.1780538303479458
adams_marchman_2018,409,670,30,10,4,47.32423621500228,0.07578204268033478,0.12228168520691399,0.10102512878712144,0.887844422465481,0.9515513946179882,0.9469696969696969,0.5987012987012987,60.72727272727273,77.9090909090909,7.454545454545454,5.909090909090909,2.83550215903193,4.242301917112983,606.25,6.4050956069208445,0.8147058823529412,,3.4011973816621555
adams_marchman_2018,409,671,30,11,3,752.9110173187798,0.5484429027359224,0.30206838027385463,0.23682524318650236,0.36941004130307553,0.5673955980382381,0.9292929292929293,0.8538961038961039,24.727272727272727,70.81818181818181,42.18181818181818,48.72727272727273,-0.9453412139451864,0.42881349713874245,1625,7.303296334312411,0.8147058823529412,,3.4011973816621555
adams_marchman_2018,409,672,36,12,8,217.09835657731597,0.3126820427492477,0.15687829751424215,0.1942659337139296,0.8726733401585245,0.9069902654240004,0.9081196581196581,0.5917582417582418,57.53846153846154,75.3076923076923,7.846153846153846,7.538461538461538,2.6420360060750614,4.015473034779283,565.625,6.289088048673289,,,3.58351893845611
adams_marchman_2018,409,673,36,16,7,640.6144743618464,0.6760940423425875,0.2887435380108649,0.24434108009609312,0.5951047822546587,0.6875953669142187,0.8888888888888888,0.8147321428571428,38.125,76.6875,25.875,37.375,0.7333701169367035,0.874429763737504,1110.7142857142858,6.836044317300806,,,3.58351893845611
adams_marchman_2018,410,674,15,30,0,,,0.493477695551373,0.46753563977636664,0.5715890245740991,0.5213847612410062,0.9949074074074074,0.9775252525252526,40.93333333333333,66.66666666666667,30.7,62.36666666666667,0.6972745268779911,0.19519033831128368,,,,0.6035353535353535,2.70805020110221
adams_marchman_2018,410,675,15,31,10,864.5848393561181,0.5475040522419338,0.3837599616195112,0.31186184036234893,0.6233809399101633,0.5863912106799344,0.9453405017921147,0.9281524926686217,42.451612903225815,71.54838709677419,25.612903225806452,50.96774193548387,0.8259206510558788,0.5251553196832806,1267.5,6.987861405021822,,0.6035353535353535,2.70805020110221
adams_marchman_2018,410,676,18,31,17,749.5433658921552,0.613848070938919,0.3225357410138208,0.17847940160664477,0.5939992673836451,0.6733837699817256,0.8920250896057348,0.8995601173020528,38.58064516129032,80.29032258064517,25.64516129032258,38.45161290322581,0.6954247269947722,1.0686842522119504,970.5882352941177,6.670607752758177,,0.8787878787878788,2.8903717578961645
adams_marchman_2018,410,677,18,28,10,653.5426960463682,0.545841744327017,0.2774023121108147,0.2801940765984815,0.6818414106467157,0.6552486414568214,0.9262452107279694,0.9028213166144201,45.41379310344827,78.82758620689654,21.275862068965516,40.3448275862069,1.0925373128983196,1.302989065486375,1012.5,6.769904383879322,,0.8787878787878788,2.8903717578961645
adams_marchman_2018,410,678,21,18,10,311.9829055146024,0.36949751887246707,0.21026636992858586,0.2158855712778555,0.7036684027691568,0.5997018372200318,0.9189814814814815,0.8607142857142858,47,72.44444444444444,19.166666666666668,48.05555555555556,1.2622687849871619,0.5389432830832519,680,6.451614807228813,0.6544117647058824,,3.044522437723423
adams_marchman_2018,410,679,22,12,8,253.54627641855495,0.34922877265222657,0.2568924882838499,0.2342632301998264,0.5917766748083491,0.6710529466036058,0.8942307692307692,0.8412087912087912,39.23076923076923,76.6923076923077,25.153846153846153,41.07692307692308,0.658745984244033,1.3342291519907596,687.5,6.478185986888218,0.6544117647058824,,3.091042453358316
adams_marchman_2018,410,680,25,15,5,74.16198487095663,0.11888892567422782,0.22532535869400272,0.20091668263750656,0.7499763276914286,0.6912575141372205,0.9296296296296296,0.849047619047619,50.733333333333334,81.8,16.2,37.06666666666667,1.8838542715257693,1.3334799566299378,610,6.407724252639239,0.8058823529411765,,3.2188758248682006
adams_marchman_2018,410,681,25,14,6,197.90570145063197,0.27109428583643974,0.2098019839864402,0.26006149550930335,0.797598114042089,0.7067762208770674,0.9484126984126984,0.8423469387755103,54.714285714285715,82.64285714285714,13.571428571428571,35.285714285714285,2.1883276930457325,1.600198830308419,658.3333333333334,6.45694917561731,0.8058823529411765,,3.2188758248682006
adams_marchman_2018,410,682,30,10,3,90.13878188659973,0.17600284163621985,0.19685428902201504,0.14740601355269342,0.8360810646572678,0.8545768323204838,0.9469696969696969,0.5753246753246753,57.63636363636363,69.72727272727273,10.545454545454545,10.818181818181818,2.8242180243194452,2.7637881597865737,500,6.204111209391735,0.9279411764705883,,3.4011973816621555
adams_marchman_2018,410,683,30,17,8,361.89913255333613,0.4275783181096395,0.22851808583530736,0.18693878333520253,0.6740466852567171,0.7291140044935281,0.8978758169934641,0.911344537815126,43.88235294117647,92.94117647058823,20.764705882352942,34.64705882352941,0.9148962268307453,1.3526408630477678,628.125,6.3454992204507255,0.9279411764705883,,3.4011973816621555
adams_marchman_2018,410,684,36,7,3,156.12494995995996,0.2737748407881013,0.22574498917840835,0.25953041989572245,0.8009017397667619,0.743883181480131,0.7941919191919192,0.4896103896103896,45.45454545454545,53,11.727272727272727,15.545454545454545,2.3349716523146946,2.3106206676291436,550,6.284289640733761,,,3.58351893845611
adams_marchman_2018,410,685,36,16,6,664.53304407430835,0.6422656113978212,0.3138800898429539,0.2379749976892043,0.5545784789776683,0.6831995755855513,0.8845486111111112,0.9026785714285714,35.5,87.5,28.1875,38.875,0.599637701078458,1.5433678186050743,895.8333333333333,6.608201240570106,,,3.58351893845611
adams_marchman_2018,411,686,16,31,13,747.3457305863471,0.49632952261110824,0.3068027483170646,0.2513368781685885,0.6007718549626617,0.6090667195102916,0.9240451388888888,0.8993844696969697,39.96875,73.09375,26.5625,45.625,0.7109218131224941,0.6882908665716803,1146.1538461538462,6.908463211786506,,0.5025252525252525,2.772588722239781
adams_marchman_2018,411,687,16,32,18,342.4041538520866,0.30862038666241587,0.24367273885264246,0.2237409676597118,0.6448559529139168,0.6292664381422531,0.8962673611111112,0.8678977272727273,42.09375,72.25,22.4375,42.3125,1.0943452002450909,0.8584283367829638,1048.611111111111,6.9085863264626175,,0.5025252525252525,2.772588722239781
adams_marchman_2018,411,688,18,32,13,345.75029895976843,0.38827844756409924,0.2924495598865573,0.24271038753838098,0.6224038140088515,0.6800313093947136,0.9418402777777778,0.9268465909090909,42.65625,83.53125,25.15625,38.8125,1.1184547893404948,1.3713141332930248,788.4615384615385,6.596278554949286,,0.648989898989899,2.8903717578961645
adams_marchman_2018,411,689,19,32,14,116.68792323360387,0.19525628232003026,0.28259349428399333,0.25333033163191493,0.68309073065862,0.6429349221230676,0.9270833333333334,0.9228219696969697,46.125,78.09375,20.625,43.71875,1.4018071335726787,0.8716853493174447,616.0714285714286,6.4060822318982025,,0.648989898989899,2.9444389791664403
adams_marchman_2018,411,690,23,17,6,176.3637339893513,0.23888058557073583,0.151392542333947,0.14058834623078154,0.8336742335823218,0.8692763060910881,0.9266975308641975,0.8472222222222222,55.77777777777778,102.88888888888889,10.944444444444445,15.722222222222221,2.2052904752972196,2.8080991369027433,670.8333333333334,6.483220666317907,0.6051470588235295,,3.1354942159291497
adams_marchman_2018,411,691,23,14,4,191.89298232782423,0.2449840759124367,0.2502094193168152,0.2217925569439537,0.7494155510232059,0.7409791640258222,0.9424603174603174,0.8688775510204082,51.642857142857146,91.28571428571429,16.214285714285715,30.357142857142858,2.088281575817749,1.9427467024050695,718.75,6.553647415097105,0.6051470588235295,,3.1354942159291497
adams_marchman_2018,411,692,24,16,6,57.0087712549569,0.11958887669071337,0.2754068743879889,0.3090142943622289,0.7999323307075765,0.7220737979302709,0.951797385620915,0.8563025210084033,55,86.76470588235294,13.529411764705882,33.11764705882353,2.237199004945686,1.7926989439925765,500,6.208842857627255,0.6051470588235295,,3.1780538303479458
adams_marchman_2018,411,693,24,4,2,17.67766952966369,0.02571580780900459,0.3336663022589071,0.44153780730712106,0.6478213071109696,0.61335923598037,0.875,0.6607142857142857,40.333333333333336,64,22.666666666666668,28.5,1.0531217735998242,1.6616635796331405,687.5,6.532896512957967,0.6051470588235295,,3.1780538303479458
adams_marchman_2018,411,694,30,14,8,300.59464875001163,0.39622168644472255,0.18106662433449067,0.16684710871498107,0.7988466083041788,0.8601716296518415,0.9226190476190477,0.5862244897959183,53.214285714285715,71,13.214285714285714,11.071428571428571,2.0528799640892923,2.933970308317839,662.5,6.4216406764948575,0.861764705882353,,3.4011973816621555
adams_marchman_2018,411,695,30,16,2,830.8504678941933,0.9373900622752759,0.2617358198557997,0.13299259936957014,0.5986185025513784,0.7896860873885231,0.900173611111111,0.8915178571428571,39.125,99.0625,25.6875,25.75,0.7493130070815651,1.7953592604372453,1012.5,6.714924038576145,0.861764705882353,,3.4011973816621555
adams_marchman_2018,411,696,36,10,6,82.78989471346529,0.16513257592114072,0.23450654196619203,0.30521712197507217,0.7378920764318918,0.7794535540427094,0.9247685185185185,0.5815476190476191,49.25,66.08333333333333,17.333333333333332,15.333333333333334,1.444115204554932,2.7201437238148776,545.8333333333334,6.291582338679571,,,3.58351893845611
adams_marchman_2018,411,697,36,14,3,604.8415770541352,0.7635005791199647,0.23557725921759134,0.1434296890180595,0.5611134054879041,0.7764530156675914,0.8581349206349206,0.8510204081632653,34.214285714285715,93.07142857142857,27.571428571428573,26.071428571428573,0.3895424294653774,1.9178151976837023,1058.3333333333333,6.802459057534817,,,3.58351893845611
adams_marchman_2018,412,698,17,32,13,267.82600551621056,0.30321937218097633,0.22458627227368647,0.23090538214737336,0.7862595145289485,0.8616915009281857,0.9609375,0.9713541666666667,54.625,110.8125,14.5625,17.40625,2.073329684260865,3.1296240480399438,761.5384615384615,6.5886732573986535,,0.7083333333333333,2.833213344056216
adams_marchman_2018,412,699,17,31,11,173.00814484242696,0.2016876833294167,0.23608347986683606,0.29680723427281325,0.8102102143930375,0.79990962874499,0.9740143369175627,0.9525904203323559,57.096774193548384,100.83870967741936,13.03225806451613,24.903225806451612,2.6156744799496403,2.7851412107958753,827.2727272727273,6.699228861705082,,0.7083333333333333,2.833213344056216
