dataset_name,subject_id,administration_id,age,n_trials,n_trials_rt,rt_var,log_rt_var,short_window_acc_var,long_window_acc_var,short_window_accuracy,long_window_accuracy,short_window_prop_data,long_window_prop_data,short_window_target,long_window_target,short_window_distractor,long_window_distractor,short_window_elogit,long_window_elogit,rt,log_rt,prod,comp,log_age
adams_marchman_2018,382,411,17,30,15,379.7085348376718,0.420056832321023,0.2454160101077582,0.2288989183319482,0.626282086711251,0.6528409617162839,0.8902329749103942,0.8974014336917563,40.32258064516129,84.61290322580645,23.774193548387096,44.61290322580645,0.6738423524371518,0.7455485308509014,840,6.648177989544021,,0.6994949494949495,2.833213344056216
adams_marchman_2018,382,412,17,16,5,234.25413550244957,0.30545058540092596,0.3215662583147026,0.2647954965581737,0.5986796088875245,0.6738397459848113,0.8919753086419753,0.7600308641975309,39.888888888888886,72.05555555555556,24.333333333333332,37.388888888888886,0.666876209267101,1.0539087822555526,760,6.595743663301313,,0.6994949494949495,2.833213344056216
adams_marchman_2018,382,413,19,28,9,1213.4303418179572,0.7144868179020888,0.28061369624773735,0.24315455182048484,0.23511132485815275,0.22259503109352055,0.9161877394636015,0.8852969348659004,14.689655172413794,27.89655172413793,51.275862068965516,99.58620689655173,-2.1003662947497688,-1.9888675209775049,2147.222222222222,7.481174536500435,,0.702020202020202,2.9444389791664403
adams_marchman_2018,382,414,19,25,13,717.6015071590383,0.5972081226995114,0.35755006563327385,0.31071685896596135,0.7137785842783612,0.7276226134405517,0.9145299145299145,0.8838141025641025,48.07692307692308,90.96153846153847,17.76923076923077,36.30769230769231,1.8861269341709896,1.9058900941208745,1059.6153846153845,6.789739531580227,,0.702020202020202,2.9444389791664403
adams_marchman_2018,382,415,22,17,11,414.1255848169731,0.4694127445564775,0.21934778921254577,0.19368502662455586,0.8343789167385299,0.8745904595240501,0.920751633986928,0.8452012383900929,55.8235294117647,112.47058823529412,10.470588235294118,16,2.503143123590413,3.0546301947284595,725,6.47275738364263,0.34558823529411764,,3.091042453358316
adams_marchman_2018,382,416,22,12,4,223.02372818454393,0.3079841132731287,0.29098428845912,0.2646330415453027,0.8367496219058719,0.7616005762007868,0.943287037037037,0.8700657894736842,57.333333333333336,101.33333333333333,10.583333333333334,30.916666666666668,2.9036593328844194,2.2037603486163033,643.75,6.4287034682022535,0.34558823529411764,,3.091042453358316
adams_marchman_2018,382,417,25,17,7,75.59289460184544,0.129057833555353,0.10881537998820426,0.12972479968768816,0.9037895495850151,0.8916900098475572,0.9673202614379085,0.9013157894736842,63.23529411764706,122.3529411764706,6.411764705882353,14.647058823529411,3.1612413710712564,2.9893333772011714,578.5714285714286,6.353366876392795,0.4764705882352941,,3.2188758248682006
adams_marchman_2018,382,418,25,10,5,115.10864433221339,0.16339258699141526,0.3001080332091786,0.24361306369210772,0.7513482111813982,0.7680373863642496,0.8597222222222223,0.8486842105263158,46.3,99.7,15.6,29.3,1.4827414955974993,2.0518043692755943,705,6.547520230815128,0.4764705882352941,,3.2188758248682006
adams_marchman_2018,382,419,37,12,7,390.702968409263,0.5201718053183099,0.23183403933612698,0.23836429436789724,0.7867272670761322,0.8118365765577897,0.9467592592592593,0.9594298245614035,54,119,14.166666666666666,26.833333333333332,2.1044490841247905,2.62092561477159,657.1428571428571,6.359547747748983,,,3.6109179126442243
adams_marchman_2018,382,420,37,14,9,906.2954969422378,0.5884416129560588,0.2906624019693489,0.2638133708479498,0.6901509620499457,0.7095236945606798,0.9404761904761905,0.9553571428571429,46.92857142857143,103.57142857142857,20.785714285714285,41.642857142857146,1.2669140886193546,1.6195112443546897,1169.4444444444443,6.881261561039207,,,3.6109179126442243
adams_marchman_2018,383,421,16,30,16,318.52115968435544,0.31670580631002154,0.2267454418308446,0.22364751142496256,0.6110374039055771,0.5846684472735327,0.8912037037037037,0.8773148148148148,39.43333333333334,74.8,24.733333333333334,51.53333333333333,0.706168722660905,0.6314639774268155,901.5625,6.754032043366853,,0.4696969696969697,2.772588722239781
adams_marchman_2018,383,422,16,30,11,621.1151993866282,0.545516686048055,0.27225419743392626,0.22411617687465096,0.6901728943074924,0.6180419006246916,0.9226851851851852,0.9037037037037037,46.46666666666667,81.13333333333334,19.966666666666665,49,1.438184337207772,0.9054923073774467,940.9090909090909,6.6957530219784145,,0.4696969696969697,2.772588722239781
adams_marchman_2018,383,423,18,31,16,380.51157998147704,0.43610008249486315,0.21403715878761195,0.20112333541200944,0.6966532632754733,0.6803572776983937,0.9050179211469535,0.8947132616487455,45.74193548387097,88.29032258064517,19.419354838709676,40.54838709677419,1.1969964324054492,1.2006045607117204,698.4375,6.44666342784753,,0.5606060606060606,2.8903717578961645
adams_marchman_2018,383,424,18,31,11,849.6389607570757,0.5918843389122209,0.2871470687157339,0.27409969682601126,0.6416737734051455,0.6186811667162921,0.8866487455197133,0.8649193548387096,41.32258064516129,77.12903225806451,22.516129032258064,47.41935483870968,1.0190640562359548,0.8472269955881877,931.8181818181819,6.6277254351372745,,0.5606060606060606,2.8903717578961645
adams_marchman_2018,383,425,22,16,9,76.03453162872775,0.11795330919466597,0.10924339954282401,0.06758135130883519,0.8403692512469056,0.9047789533515347,0.9296875,0.8803453947368421,56.5,121.25,10.4375,12.5625,2.1094011540648783,2.614906991856416,641.6666666666666,6.457872585974322,0.5308823529411765,,3.091042453358316
adams_marchman_2018,383,426,22,13,5,81.77713616898063,0.11361889983553829,0.11124796575610481,0.09670365090701374,0.8965839449795967,0.8767748766857103,0.905982905982906,0.8577935222672065,58.46153846153846,114,6.769230769230769,16.384615384615383,3.0390216365598883,2.4592478979304433,745,6.608338025627152,0.5308823529411765,,3.091042453358316
adams_marchman_2018,383,427,24,18,3,212.62251370288456,0.30707021888828445,0.23770521889069535,0.269988360490924,0.8060619232517816,0.7929782090299017,0.9459876543209876,0.8830409356725146,55.27777777777778,106.88888888888889,12.833333333333334,27.333333333333332,2.355916198739408,2.2962926290300163,658.3333333333334,6.457124300847951,0.638235294117647,,3.1780538303479458
adams_marchman_2018,383,428,24,12,5,1209.2611380508347,0.7820546204071313,0.3754261060307764,0.2890108032886188,0.657437396821588,0.6574623031570518,0.9467592592592593,0.8103070175438596,44.583333333333336,81.33333333333333,23.583333333333332,41.833333333333336,1.088568670368352,1.3291531746983172,1580,7.121427128081555,0.638235294117647,,3.1780538303479458
adams_marchman_2018,384,429,15,31,16,436.033255612459,0.45337627002063496,0.21913113293367587,0.17461348517228564,0.6100361948986657,0.5193799558649618,0.8706597222222222,0.8391927083333334,38.3125,63.75,24.375,57.09375,0.6781412283477108,0.10864198152000866,1068.75,6.885715568647989,,0.3282828282828283,2.70805020110221
adams_marchman_2018,384,430,16,32,14,584.0720074529423,0.4024568600137922,0.3433989866274601,0.2413098929047154,0.5622197859613637,0.5652660133589521,0.9348958333333334,0.9220920138888888,38,75.34375,29.3125,57.4375,0.4475932005630314,0.43782699265155745,1421.4285714285713,7.1844025533366676,,0.3282828282828283,2.772588722239781
adams_marchman_2018,384,431,18,28,11,948.5814768283313,0.5536915645731008,0.3718456977697399,0.34548749957224334,0.5063255828264456,0.5033088435033473,0.9530651340996169,0.9288793103448276,34.51724137931034,68,34.10344827586207,65.75862068965517,-0.0890527692297426,-0.10689120981526741,1547.7272727272727,7.1965598357287925,,0.5909090909090909,2.8903717578961645
adams_marchman_2018,384,432,18,28,15,652.1393365575444,0.4744863183307644,0.31173019687093695,0.22010038835105075,0.5298403909524483,0.5688927840101582,0.9315134099616859,0.8975095785440613,35.58620689655172,72.37931034482759,31.482758620689655,56.86206896551724,0.14899923825672942,0.383178025989586,1330,7.086625726649944,,0.5909090909090909,2.8903717578961645
adams_marchman_2018,384,433,21,18,4,495.132558008459,0.4063447493238919,0.3589517791856827,0.33543649379565316,0.7579286194916682,0.7428521544547954,0.974537037037037,0.9192251461988304,53.44444444444444,104.05555555555556,16.72222222222222,35.666666666666664,2.3589654991017452,2.1147481175866396,1106.25,6.9426414108416115,0.13823529411764707,,3.044522437723423
adams_marchman_2018,384,434,21,14,7,890.5756565278438,0.5835438670796417,0.37241493652095947,0.37056279696662453,0.59031289213055,0.6103642046275751,0.9553571428571429,0.8801691729323309,40.42857142857143,83.42857142857143,28.357142857142858,50.357142857142854,0.417277634726288,0.840333233273039,1175,6.896927140006015,0.13823529411764707,,3.044522437723423
adams_marchman_2018,384,435,24,16,6,289.1438511652404,0.3753813262278225,0.3036545449901624,0.27655412949676345,0.6617609649123184,0.6772869013866708,0.8896604938271605,0.8245614035087719,42.72222222222222,82.94444444444444,21.333333333333332,42.388888888888886,0.9187624558729247,0.9617297183390465,804.1666666666666,6.633102598485301,0.5279411764705882,,3.1780538303479458
adams_marchman_2018,384,436,24,13,3,766.621375473795,0.7553015344140485,0.3864588685012284,0.2792821499713393,0.6678177719893436,0.6232015153730558,0.8867521367521367,0.8694331983805668,42.30769230769231,82,21.53846153846154,50.15384615384615,1.483396117726291,0.599097237955775,1083.3333333333333,6.8057217263235374,0.5279411764705882,,3.1780538303479458
adams_marchman_2018,385,437,15,31,14,505.722744698609,0.4902431754867671,0.2735440244395968,0.2764456129501821,0.6761698704178234,0.651993339036295,0.9153645833333334,0.9079861111111112,45,85.84375,20.90625,44.90625,1.4194442482479723,1.3913992818303103,1021.4285714285714,6.82021617583125,,0.3282828282828283,2.70805020110221
adams_marchman_2018,385,438,15,31,17,775.8534200554668,0.5017327709042823,0.2973928094797055,0.22103244588073304,0.6745296992775907,0.7614409992409387,0.932347670250896,0.9245071684587813,45.516129032258064,102.03225806451613,21.612903225806452,31.096774193548388,1.2120918865662282,1.800400308252534,1208.8235294117646,6.9582968505936424,,0.3282828282828283,2.70805020110221
adams_marchman_2018,385,439,17,32,15,551.6101970810633,0.392002229300611,0.2900393600607217,0.20015333605884053,0.7113426158246973,0.7282760681370982,0.9444444444444444,0.9375,48.9375,98.78125,19.0625,36.21875,1.7873331026121164,1.7931872796851511,1178.3333333333333,6.992203888076031,,0.5075757575757576,2.833213344056216
adams_marchman_2018,385,440,17,32,15,560.362340259365,0.38170692898205444,0.28008270040481265,0.25043933365498666,0.7119767399427881,0.757383735592978,0.9500868055555556,0.92578125,48.875,101.75,19.53125,31.5625,1.7909247851099563,2.1635315061999854,1063.3333333333333,6.885987794469059,,0.5075757575757576,2.833213344056216
adams_marchman_2018,385,441,21,11,3,200.5201569252661,0.21969241333396228,0.36815829715940074,0.3215243946383323,0.6934442239723332,0.7251897259317874,0.9456018518518519,0.8618421052631579,47.5,96.66666666666667,20.583333333333332,34.333333333333336,1.7529220395203124,1.7432695271175793,916.6666666666666,6.804701577605836,0.34705882352941175,,3.044522437723423
adams_marchman_2018,385,442,22,9,4,470.9808028642639,0.5768621920316666,0.38824237473832446,0.31414958030622847,0.6615108420647361,0.7683123993191804,0.9152777777777777,0.8078947368421052,43.5,92,22.4,30.8,1.3403011036982646,2.476744885566125,881.25,6.664027951356953,0.34705882352941175,,3.091042453358316
adams_marchman_2018,385,443,24,14,4,133.8531533684084,0.18355195798507054,0.1823599211580018,0.16810914773422922,0.8523742105628463,0.8025062058868536,0.939484126984127,0.881578947368421,58.142857142857146,108.5,9.5,25.5,2.812428912022282,2.377693262821447,725,6.573504198504935,0.43970588235294117,,3.1780538303479458
adams_marchman_2018,385,444,24,3,1,,,,,,,,,,,,,,,,,0.43970588235294117,,3.1780538303479458
adams_marchman_2018,385,445,35,14,3,230.9401076758503,0.2686775974790376,0.2836354993567828,0.1491814239737679,0.7930725976921629,0.8206846605114116,0.941468253968254,0.8792293233082706,54.642857142857146,111.07142857142857,13.142857142857142,22.571428571428573,2.376707186992771,2.4802697185453026,808.3333333333334,6.669833774102274,,,3.5553480614894135
adams_marchman_2018,386,446,15,32,8,984.2509842514763,0.6224219343069923,0.43018349104056136,0.38986255332065045,0.667617853889727,0.6258138924022333,0.9622395833333334,0.9520399305555556,46,85.0625,23.28125,52.03125,1.4631428206651675,0.6517194107207316,1337.5,7.0144803672491935,,0.15404040404040403,2.70805020110221
adams_marchman_2018,386,447,16,32,13,356.85817408356564,0.31490937513170236,0.3604055541811482,0.3034440319599911,0.6275993231135631,0.636073578595329,0.9344618055555556,0.9223090277777778,42.5625,84.125,24.71875,48.6875,1.1072454994279564,0.7419660352035327,1259.6153846153845,7.096138666803336,,0.15404040404040403,2.772588722239781
adams_marchman_2018,386,448,19,32,8,943.4927511266695,0.5458203232704554,0.3741269541761791,0.3404612059085695,0.6885515373125705,0.647616808443552,0.9635416666666666,0.9420572916666666,48,88.4375,21.375,47.21875,1.6997355923017212,1.4185556501558587,1612.5,7.2510988949144055,,0.3611111111111111,2.9444389791664403
adams_marchman_2018,386,449,19,32,13,294.6504883016661,0.2901029537616276,0.2738749981979914,0.3007573346466448,0.7717706437491302,0.7015748590006696,0.9318576388888888,0.9357638888888888,52.46875,95.21875,14.625,39.53125,2.271594442539199,1.8327539182815928,873.0769230769231,6.729380244731615,,0.3611111111111111,2.9444389791664403
adams_marchman_2018,386,450,23,18,12,314.32798687570494,0.28542851462166974,0.27580574861791574,0.2655374588663998,0.5728667308249612,0.5830287578874904,0.9166666666666666,0.8848684210526316,38.333333333333336,79.5,27.666666666666668,55,0.7451283262350923,0.7689540377812831,1147.9166666666667,7.009451418287153,0.49117647058823527,,3.1354942159291497
adams_marchman_2018,386,451,23,6,3,208.16659994661327,0.3854787526223546,0.3962065532027087,0.33528876176440536,0.6000082795164762,0.6354250530412451,0.9328703703703703,0.8399122807017544,40.833333333333336,82.83333333333333,26.333333333333332,44.833333333333336,0.9138923602345458,1.744124295631439,608.3333333333334,6.364833915398763,0.49117647058823527,,3.1354942159291497
adams_marchman_2018,386,452,25,16,5,520.8166663999915,0.4846644054307514,0.3308005321211241,0.28278777796922266,0.7994907745706978,0.7660099460761712,0.9835069444444444,0.8988486842105263,56.875,105.9375,13.9375,30.6875,2.7288833907681593,2.1838522232051027,850,6.634307519803469,0.5397058823529411,,3.2188758248682006
adams_marchman_2018,386,453,25,12,6,863.5681791265818,0.556158114859722,0.3129637101331567,0.27135542902758303,0.7572694606089629,0.7631449482399169,0.9004629629629629,0.8695175438596492,49.666666666666664,102.41666666666667,15.166666666666666,29.75,2.1150596729975613,2.5070389989801254,1225,6.959364907897614,0.5397058823529411,,3.2188758248682006
adams_marchman_2018,386,454,36,12,6,161.5678392090043,0.21049016752793312,0.16287073999065615,0.16751974476117806,0.7868799939695462,0.8485323511024774,0.9479166666666666,0.9577850877192983,53.916666666666664,123.75,14.333333333333334,21.833333333333332,1.9703730029499031,2.5021941706084383,754.1666666666666,6.606934148157017,,,3.58351893845611
adams_marchman_2018,387,455,16,28,12,1014.3571632050787,0.5845283070215214,0.4080795869217789,0.3429292549347513,0.6515213941799504,0.6776273903903679,0.9688697318007663,0.9353448275862069,45.6896551724138,91.06896551724137,24.06896551724138,43.62068965517241,1.4268059971595979,1.7979806627888215,1737.5,7.304019792384855,,0.45454545454545453,2.772588722239781
adams_marchman_2018,387,456,16,26,12,743.3384715816431,0.4001191906484561,0.3707765128590005,0.3082975046955211,0.5653612583133326,0.5713715836785449,0.934156378600823,0.8840020576131687,37.51851851851852,75.22222222222223,29.74074074074074,52.074074074074076,0.5136010550819203,0.6937070080737479,1677.0833333333333,7.346471571435251,,0.45454545454545453,2.772588722239781
adams_marchman_2018,387,457,18,24,8,202.85352738226806,0.19660945806567434,0.3116928164693386,0.28313512680199543,0.7242630234713147,0.661382307976952,0.9272222222222222,0.8822222222222222,49,84.8,17.76,42.24,1.9498414574431524,1.1746999000498548,996.875,6.887318157838874,,0.7449494949494949,2.8903717578961645
adams_marchman_2018,387,458,19,26,7,601.2140495142586,0.4419922019679485,0.3335434277256253,0.2298820944457021,0.681481379563858,0.7184658863528032,0.9401709401709402,0.8971688034188035,46.65384615384615,94.23076923076923,21.03846153846154,34.96153846153846,1.5813102457914727,1.8334914166791485,1175,6.9761309931223865,,0.7449494949494949,2.9444389791664403
adams_marchman_2018,387,459,21,17,7,694.2364767961171,0.515013013902443,0.33761796772299124,0.2683089830532402,0.6963643866158049,0.7239739157938198,0.8913398692810457,0.8695820433436533,45.588235294117645,97.23529411764706,18.58823529411765,34.94117647058823,1.6692371306827174,1.749280217471733,1146.4285714285713,6.91967162071809,0.6573529411764706,,3.044522437723423
adams_marchman_2018,387,460,22,11,8,862.9204461759911,0.6861095081652625,0.39252667242231293,0.18964369032310374,0.6810911932180589,0.8635468822985007,0.9340277777777778,0.8689692982456141,46.916666666666664,110.08333333333333,20.333333333333332,22,1.5010106037765782,3.268307666212391,1315.625,6.983845061415043,0.6573529411764706,,3.091042453358316
adams_marchman_2018,387,461,24,15,8,949.8825115319713,0.6164764100652367,0.33304203110814123,0.22842833934461437,0.6158948932356927,0.6700237917664509,0.8984375,0.8400493421052632,40.5,86.375,24.1875,41.3125,0.5983824615860548,1.0778808466794572,1381.25,7.051789408043261,0.8382352941176471,,3.1780538303479458
adams_marchman_2018,387,462,24,5,2,141.4213562373095,0.20342194425645388,0.28376491459028563,0.2572559037820013,0.666682624277101,0.5808085777895649,0.8310185185185185,0.7664473684210527,40.5,68.66666666666667,19.333333333333332,47.833333333333336,1.6211756779870217,1.0532166366324673,700,6.540770691442036,0.8382352941176471,,3.1780538303479458
adams_marchman_2018,387,463,36,14,5,694.2621983083912,0.506334368499196,0.3011585963950187,0.21770765208989065,0.7210990502035278,0.7269512921194811,0.9285714285714286,0.8890977443609023,47.92857142857143,98.64285714285714,18.928571428571427,36.5,1.7400850495376303,1.8081191247781079,1295,7.060627044776985,,,3.58351893845611
adams_marchman_2018,388,464,15,31,12,326.9753488993915,0.30605438511881844,0.30112728503671593,0.23243316678655668,0.7149112056224888,0.7863046656296218,0.942652329749104,0.9415322580645161,49.45161290322581,107.38709677419355,18.419354838709676,28.193548387096776,2.026160054225574,2.2087550171215087,1129.1666666666667,6.987970834899737,,0.6186868686868687,2.70805020110221
adams_marchman_2018,388,465,15,30,12,816.0412339180817,0.5421809920369786,0.3830711843140718,0.31686829375971975,0.654274542200295,0.7076998368648542,0.9513888888888888,0.9173611111111111,45.03333333333333,93.16666666666666,23.466666666666665,38.93333333333333,1.2113126245773211,1.4833055528077028,1381.25,7.089596855060824,,0.6186868686868687,2.70805020110221
adams_marchman_2018,388,466,18,31,12,203.41543921023035,0.24363017754034524,0.19856581036234036,0.24678176196863205,0.7672073372488812,0.7497793816616632,0.9516129032258065,0.9301075268817204,52.96774193548387,100.93548387096774,15.548387096774194,33,2.0720978001185846,2.087090812686045,893.75,6.769480380397988,,0.6767676767676768,2.8903717578961645
adams_marchman_2018,388,467,18,32,17,689.8389358052655,0.40653418948183073,0.24135889698801052,0.25295014281741,0.7436605971771523,0.6898942617559035,0.9361979166666666,0.9090711805555556,50.375,91.15625,17.03125,39.75,1.6569893194413037,1.3348073321405276,995.5882352941177,6.79387879801598,,0.6767676767676768,2.8903717578961645
adams_marchman_2018,388,468,21,18,8,259.03323008006964,0.25465312903261844,0.32155848585042823,0.3228045999568089,0.6874698846823518,0.7091203534222785,0.9645061728395061,0.8728070175438597,47.888888888888886,93.72222222222223,21.555555555555557,38.94444444444444,1.4389914541178508,1.5224766493804722,918.75,6.792642017572319,0.5588235294117647,,3.044522437723423
adams_marchman_2018,388,469,21,13,4,1119.6167499044782,0.6265156545113757,0.4089378078549411,0.3683951643799903,0.6722689075630253,0.6992260418811287,0.9444444444444444,0.8792293233082706,47.5,91.64285714285714,20.5,42,1.5907144927020824,1.2324651810134322,1512.5,7.154773207224323,0.5588235294117647,,3.044522437723423
adams_marchman_2018,388,470,23,17,5,242.7704677262043,0.22421271362916112,0.3286084203876311,0.27488312296588413,0.7091638163469388,0.7401657853837591,0.9501633986928104,0.8289473684210527,48.94117647058823,95,19.470588235294116,31,1.8406159221447684,2.2765737683066005,985,6.871229333127294,0.6985294117647058,,3.1354942159291497
adams_marchman_2018,388,471,24,10,4,1413.9741570009924,0.8077409908927223,0.3833412917598206,0.3273368626191458,0.7434411658148073,0.8156278044355582,0.9659090909090909,0.8738038277511961,52.18181818181818,105.0909090909091,17.363636363636363,27.727272727272727,2.3472533364494774,3.165306440204512,1631.25,7.138878591247588,0.6985294117647058,,3.1780538303479458
adams_marchman_2018,389,472,15,32,18,308.40619170984115,0.33310076047503756,0.1968723271536323,0.14382118657574114,0.6448690598214716,0.5903736930259725,0.8993055555555556,0.8697916666666666,42.0625,73.78125,22.6875,51.46875,0.8029596429309914,0.41022651714652447,919.4444444444445,6.771679886711694,,0.4166666666666667,2.70805020110221
adams_marchman_2018,389,473,16,31,12,148.66833128569354,0.2334604944840141,0.199823633702224,0.17739367367098666,0.5923734420288592,0.5779185407774998,0.8654513888888888,0.8240017361111112,37,69.28125,25.3125,49.375,0.5167317980799472,0.4784282179387221,712.5,6.545746451760678,,0.4166666666666667,2.772588722239781
adams_marchman_2018,389,474,19,28,12,97.19065143969726,0.16631987595836187,0.23095877191885203,0.2056931332475135,0.7146295464554593,0.62032394572196,0.9013888888888889,0.8182870370370371,46.93333333333333,73.6,17.966666666666665,44.233333333333334,1.3945713257611925,0.691991876766445,606.25,6.395025208148163,,0.5656565656565656,2.9444389791664403
adams_marchman_2018,389,475,19,26,14,95.57518184453214,0.15113601876486757,0.17971695705609403,0.22286893001337152,0.6960177017099777,0.63512502309697,0.8402777777777778,0.7314814814814815,42.5,65.96666666666667,18,39.36666666666667,1.1099500571544993,0.7530521334481751,625,6.427083866304204,,0.5656565656565656,2.9444389791664403
adams_marchman_2018,389,476,22,18,7,77.72815877574013,0.1146497092633933,0.24379141622772393,0.22901958804587386,0.7007739333747178,0.6982257743494715,0.8734567901234568,0.7627923976608187,45.05555555555556,81.83333333333334,17.833333333333332,34.111111111111114,1.37525699364605,1.2046403456867545,650,6.4711829272114985,0.3897058823529412,,3.091042453358316
adams_marchman_2018,389,477,22,13,8,105.22085616183026,0.20240966705403787,0.11924027469150017,0.12333363662893801,0.824619753524608,0.8425794027718747,0.9087301587301587,0.7824248120300752,54.214285714285715,99.42857142857143,11.214285714285714,19.5,1.8857721489841779,2.1564865347525775,562.5,6.315415706990275,0.3897058823529412,,3.091042453358316
adams_marchman_2018,389,478,24,18,8,268.07431672152836,0.3343749662646764,0.2556634023667696,0.3075947153093802,0.7458671110310454,0.626247921812124,0.9382716049382716,0.8757309941520468,50.388888888888886,83.44444444444444,17.166666666666668,49.666666666666664,1.8409451622818152,1.040760240941528,696.875,6.493192053950581,0.6411764705882353,,3.1780538303479458
adams_marchman_2018,389,479,24,12,1,,,0.2916812666326624,0.2718542245174057,0.7956043391253703,0.6897270646446039,0.8958333333333334,0.8530701754385965,51.5,92,13,37.666666666666664,2.86427814236572,1.905369325083944,,,0.6411764705882353,,3.1780538303479458
adams_marchman_2018,389,480,37,14,4,192.0286436967152,0.327614264811766,0.2389363237929103,0.1681361552923209,0.8109840849870124,0.7066163574903794,0.9494047619047619,0.9337406015037594,55.785714285714285,100.64285714285714,12.571428571428571,41.285714285714285,2.5285008961082798,1.166936128462033,512.5,6.195063653156186,,,3.6109179126442243
adams_marchman_2018,389,481,37,18,6,472.7578661429125,0.5191340097528696,0.22419021715342152,0.270632903030217,0.7321154212587334,0.6791438003744344,0.8811728395061729,0.8472222222222222,46.77777777777778,88.61111111111111,16.666666666666668,40.166666666666664,1.5069290263401884,1.2547548661126635,775,6.528258901602092,,,3.6109179126442243
adams_marchman_2018,390,482,17,31,13,462.738157670299,0.4425285514034224,0.2782955022761592,0.2640719653652863,0.7534697601252107,0.7195637662572075,0.932347670250896,0.9336917562724014,50.83870967741935,97.35483870967742,16.29032258064516,37.096774193548384,1.808057899222513,1.756215271947305,888.4615384615385,6.690542110448802,,0.755050505050505,2.833213344056216
adams_marchman_2018,390,483,17,32,14,757.5558043492881,0.4771854913458689,0.2953362120134183,0.25412624603395423,0.6871437544064278,0.5478882231876222,0.9019097222222222,0.859375,45.125,68.21875,19.8125,55.53125,1.3377044772452935,0.24555460165363277,926.7857142857143,6.681809666939055,,0.755050505050505,2.833213344056216
adams_marchman_2018,390,484,19,31,17,430.56477957650543,0.3680555797426008,0.2737333985821231,0.2548295396400121,0.7093319711221301,0.6255170612551184,0.859375,0.833984375,44.03125,73.90625,17.84375,46.1875,1.2881840059724565,1.0297313306765008,883.8235294117648,6.708199474232317,,0.9090909090909091,2.9444389791664403
adams_marchman_2018,390,485,19,24,12,455.27214638359686,0.45685711209331525,0.3225361068598353,0.32575675913439706,0.6394262389338857,0.5747861411320133,0.8375,0.7011574074074074,39.166666666666664,59.8,21.133333333333333,41.166666666666664,1.0300786519881981,0.5208000545109135,850,6.640465238500926,,0.9090909090909091,2.9444389791664403
adams_marchman_2018,390,486,22,18,5,810.362573173268,0.6147017689290036,0.3575912033083594,0.34726779006293707,0.6974830339413672,0.6384296252015549,0.9143518518518519,0.8636695906432749,46.77777777777778,85.66666666666666,19.055555555555557,45.611111111111114,1.400620953200507,1.0994655347703521,1045,6.773724137139706,0.6352941176470588,,3.091042453358316
adams_marchman_2018,390,487,22,12,2,88.38834764831844,0.13909518299058565,0.36763089625931145,0.3589419117570282,0.7514990262586416,0.6787257114751979,0.9262820512820513,0.8451417004048583,51.61538461538461,88.15384615384616,15.076923076923077,40.30769230769231,2.050539701950337,1.401773051300708,637.5,6.452725187920377,0.6352941176470588,,3.091042453358316
adams_marchman_2018,390,488,24,13,6,390.325718684622,0.43327660415134767,0.18619636705762882,0.20013170275933947,0.8665819970761803,0.7295935158631169,0.90625,0.764391447368421,57.1875,86.0625,8.0625,30.125,2.9092975742339546,1.4203871277889726,770.8333333333334,6.56059775027688,0.7573529411764706,,3.1780538303479458
adams_marchman_2018,390,489,24,10,4,821.6789214772398,0.3438005905647234,0.3972397591751937,0.3793971512903521,0.3663817227923715,0.44614843317121883,0.8645833333333334,0.787828947368421,22.166666666666664,51.91666666666667,40.083333333333336,67.83333333333333,-1.1250247907484787,-0.5855270469772513,2181.25,7.640514651534167,0.7573529411764706,,3.1780538303479458
adams_marchman_2018,390,490,36,13,3,132.28756555322954,0.27404491615321974,0.22837255172648832,0.14811281935783482,0.8783952265410067,0.7955958932417382,0.9583333333333334,0.8881578947368421,60.84615384615385,106.84615384615384,8.153846153846153,28.153846153846153,3.214823760644304,1.926778526142417,525,6.239682572168054,,,3.58351893845611
adams_marchman_2018,390,491,37,18,8,546.8150477342147,0.6052553841335024,0.2906111509857047,0.180202642510568,0.7411012839768495,0.7929426403581296,0.9398148148148148,0.9480994152046783,50.5,114.66666666666667,17.166666666666668,29.444444444444443,2.080523933773183,1.8934116168643729,996.875,6.7536782228221615,,,3.6109179126442243
adams_marchman_2018,391,492,16,29,8,335.67628964311945,0.32857615558489117,0.2508243933682747,0.2182215392432354,0.7530130736107798,0.7299785233979892,0.9176245210727969,0.8975095785440613,50.655172413793096,96.03448275862068,15.413793103448276,33.206896551724135,2.2258782343631434,1.8185396204897344,1037.5,6.8980962077421974,,0.25252525252525254,2.772588722239781
adams_marchman_2018,391,493,16,31,15,272.63048426832415,0.2747195341767376,0.24347992593254555,0.2052425997447044,0.7681873983333656,0.7191255371021256,0.9045138888888888,0.8832465277777778,50.4375,92.6875,14.6875,34.5,2.0502471040594084,1.593299661005947,918.3333333333334,6.785593721085068,,0.25252525252525254,2.772588722239781
adams_marchman_2018,391,494,18,31,19,372.96229996205034,0.34611457216202784,0.28005495448251,0.2500862142814507,0.6612308379705623,0.656541000157524,0.8826164874551972,0.8745519713261649,42.35483870967742,82.45161290322581,21.193548387096776,43.483870967741936,0.912586229559487,0.7462036711969141,942.1052631578948,6.7872538022816835,,0.43686868686868685,2.8903717578961645
adams_marchman_2018,391,495,18,30,15,682.2014435075681,0.43969306310209816,0.2783668164808842,0.2734430049395992,0.7577783434779704,0.6958048987248124,0.9083333333333333,0.9113425925925925,49.83333333333333,91.33333333333333,15.566666666666666,39.9,1.7888942879875698,1.2871043316632569,1018.3333333333333,6.8077072605671525,,0.43686868686868685,2.8903717578961645
adams_marchman_2018,391,496,21,15,6,250.87347408604202,0.3092891827076072,0.2598963324780722,0.263033050851668,0.8074069678859654,0.812892640733658,0.9157986111111112,0.8408717105263158,53.125,104.6875,12.8125,23.125,2.2693625294443938,2.4194143905660574,812.5,6.6604741611273806,0.2676470588235294,,3.044522437723423
adams_marchman_2018,391,497,24,15,7,609.083034451907,0.4906853973178676,0.2990745060200761,0.22289677586003398,0.7379195774236311,0.8210164582569096,0.9071180555555556,0.8264802631578947,48.75,102.75,16.5625,22.875,1.913160169751277,2.5457819513873066,982.1428571428571,6.769745856000674,0.38382352941176473,,3.1780538303479458
adams_marchman_2018,391,498,24,4,3,766.0776723022282,0.49624111691091516,0.41795234168414275,0.23354968186930047,0.5537846481876333,0.7646789851858226,0.9756944444444444,0.9210526315789473,38.75,107.25,31.5,32.75,0.22104871790125924,2.077353477041077,1450,7.193136131994763,0.38382352941176473,,3.1780538303479458
adams_marchman_2018,391,499,37,14,5,1031.5946393811864,0.6259562407985784,0.3513684498343655,0.3071656709531534,0.7618001046572476,0.7744751561516191,0.9603174603174603,0.930921052631579,52.714285714285715,109.92857142857143,16.428571428571427,31.571428571428573,2.148240037199633,2.323300863337036,1270,6.9573859163457845,,,3.6109179126442243
adams_marchman_2018,391,500,37,17,8,551.1351921262151,0.5407932758374406,0.35315079246632713,0.2636454720117434,0.5361460330724811,0.687953853112892,0.9084967320261438,0.9272445820433437,35.94117647058823,97.76470588235294,29.470588235294116,43.1764705882353,0.814844361771539,1.8585194182709168,1412.5,7.151623271419243,,,3.6109179126442243
adams_marchman_2018,392,501,15,27,14,772.9568068622756,0.4573394331465262,0.33602455584489394,0.25663877508468647,0.5835668102053909,0.5531412370675772,0.9418724279835391,0.9084362139917695,39.62962962962963,72.25925925925925,28.185185185185187,58.55555555555556,0.5828661238382055,0.14257277907358235,1383.9285714285713,7.123323405294643,,0.4166666666666667,2.70805020110221
adams_marchman_2018,392,502,16,29,18,177.65838004439868,0.25015681417617736,0.21087852247588854,0.22794160496775553,0.6900380978953624,0.6281902740345513,0.9037037037037037,0.8729166666666667,45.36666666666667,77.76666666666667,19.7,47.93333333333333,1.1973096087612858,0.9513751324430925,820.8333333333334,6.683872178330873,,0.4166666666666667,2.772588722239781
adams_marchman_2018,392,503,17,27,13,840.3629786571015,0.5304963580640594,0.31851946965330014,0.25228312516851,0.6233419293773421,0.5547968045552462,0.9048353909465021,0.8909465020576132,40.666666666666664,71.33333333333333,24.48148148148148,56.96296296296296,0.8707991420857181,0.3533911806274141,1388.4615384615386,7.097559584491572,,,2.833213344056216
adams_marchman_2018,392,504,18,23,14,933.1722453869057,0.5406143462682621,0.36586515072393916,0.3117534251369048,0.4470837945708878,0.4508851394195264,0.9116666666666666,0.8613888888888889,29.119999999999997,56.44,36.52,67.6,-0.606362521889649,-0.45068367776189155,1592.857142857143,7.230805768150801,,,2.8903717578961645
adams_marchman_2018,392,505,22,13,7,152.55756134590484,0.22498510286537882,0.2313835828928217,0.15426736143109962,0.719698524950075,0.8197078985333707,0.8663194444444444,0.7549342105263158,46.5,90.9375,15.875,23.8125,1.5038364807156337,2.165647872456984,767.8571428571429,6.623721597059194,0.4235294117647059,,3.091042453358316
adams_marchman_2018,392,506,22,12,4,929.8297335175582,0.790274295580801,0.3686206885575535,0.3358972480303447,0.6958725404497463,0.5872263994627703,0.9513888888888888,0.8859649122807017,47.5,80.91666666666667,21,53.75,1.3651538505209773,1.0143863250799459,1275,6.930637858443535,0.4235294117647059,,3.091042453358316
adams_marchman_2018,392,507,25,17,10,575.2052773672292,0.5117261829713047,0.2900664156873392,0.1636065347543609,0.7529798058157453,0.8613499392776034,0.9411764705882353,0.8699690402476781,51.11764705882353,114.52941176470588,16.647058823529413,17.705882352941178,1.8444419754745063,2.6806850368748103,940,6.714149459406218,0.6220588235294118,,3.2188758248682006
adams_marchman_2018,392,508,25,7,2,441.9417382415922,0.38112808070390314,0.24848828395395534,0.17642425742018245,0.826030412164866,0.902550386058029,0.8541666666666667,0.7820723684210527,52.75,106.875,8.75,12,3.1284565784662934,4.184104543462139,1187.5,7.043722136723957,0.6220588235294118,,3.2188758248682006
adams_marchman_2018,393,509,15,27,12,630.1905676183605,0.5217078989040266,0.29631351803436873,0.24287031979051488,0.6169300278420095,0.588059982455704,0.9191468253968254,0.908234126984127,41.03571428571429,77.42857142857143,25.142857142857142,53.357142857142854,0.8926261185379449,0.7698773033565005,1170.8333333333333,6.942504778290469,,0.20454545454545456,2.70805020110221
adams_marchman_2018,393,510,16,26,10,914.618924895925,0.515156050817927,0.4031854477005874,0.2803317825550352,0.4837897042167139,0.4743394530093017,0.9145299145299145,0.8173076923076923,31.692307692307693,56.96153846153847,34.15384615384615,60.73076923076923,-0.232432596345097,-0.1393175204912118,2200,7.595635544844234,,0.20454545454545456,2.772588722239781
adams_marchman_2018,393,511,18,30,14,683.5588835299759,0.35578186630369557,0.35327474101588663,0.3430542328399808,0.5007005842566123,0.5279568137263296,0.9268518518518518,0.9282407407407407,34.2,70.6,32.53333333333333,63.06666666666667,0.16491351349227235,0.4050110430951065,1482.142857142857,7.231891510779798,,0.3712121212121212,2.8903717578961645
adams_marchman_2018,393,512,18,28,11,764.1171376170017,0.44600928853017685,0.3551411353839958,0.267964995554717,0.5112938035554082,0.561242789619711,0.9191468253968254,0.8653273809523809,34.07142857142857,68.28571428571429,32.107142857142854,56.32142857142857,-0.1655464855899093,0.2986472700832602,1475,7.196007091275982,,0.3712121212121212,2.8903717578961645
adams_marchman_2018,393,513,21,16,5,230.21728866442677,0.3235508360645422,0.33049576846589257,0.31291214095326236,0.5640762195986255,0.5068749351749492,0.8984375,0.8297697368421053,36.5,63.8125,28.1875,62.3125,0.6047741236796776,-0.03410033302909754,865,6.725969167892858,0.13970588235294118,,3.044522437723423
adams_marchman_2018,393,514,21,8,3,776.7453465154028,0.5327465604299664,0.3896723869988293,0.33456002719937916,0.4719438121065759,0.36072556744480566,0.7972222222222223,0.6914473684210526,26.599999999999998,39.1,30.8,66,-0.5507446517338495,-1.3428303010819036,1433.3333333333333,7.1717843217870865,0.13970588235294118,,3.044522437723423
adams_marchman_2018,393,515,24,11,6,864.544677850717,0.511419947660499,0.3327853716583483,0.2215419104774175,0.5996607858114164,0.7286430626921094,0.9305555555555556,0.8779904306220095,40.36363636363637,97.54545454545455,26.636363636363637,35.90909090909091,0.6703531033450643,1.3907685842388864,1512.5,7.204432279639945,0.27941176470588236,,3.1780538303479458
adams_marchman_2018,393,516,24,7,2,282.842712474619,0.1865450863039724,0.3662680914739088,0.19421520746360052,0.7118180605575564,0.7989538297631416,0.9662698412698413,0.8778195488721804,50.42857142857143,106.42857142857143,19.142857142857142,27,2.52243281040723,2.4493952796874896,1525,7.321075033942892,0.27941176470588236,,3.1780538303479458
adams_marchman_2018,393,517,36,11,7,123.6835439645026,0.15291134707166762,0.1278222415557417,0.10252515097958331,0.840244012161231,0.8669650734973748,0.8910256410256411,0.5774291497975709,53.76923076923077,75.92307692307692,10.384615384615385,11.846153846153847,2.322032553648506,2.5475611955596578,746.4285714285714,6.604737667457211,,,3.58351893845611
adams_marchman_2018,393,518,36,17,7,599.6030432909839,0.6138722467963242,0.38753488222291704,0.2747144488021223,0.5200513613582138,0.6420425071131423,0.8464052287581699,0.8676470588235294,30.647058823529413,85.76470588235294,30.294117647058822,46.11764705882353,0.5379956610642553,1.1604862862817855,1367.857142857143,7.092670796030682,,,3.58351893845611
adams_marchman_2018,394,519,15,26,9,336.804839632687,0.40130303641541176,0.25283616929944724,0.2071592123686287,0.6853669301768127,0.6552739630718336,0.9074074074074074,0.8775720164609053,45.51851851851852,82.70370370370371,19.814814814814813,43.666666666666664,1.475974482720303,0.9883967807285547,925,6.763650278764473,,0.6085858585858586,2.70805020110221
adams_marchman_2018,394,520,15,26,14,490.3323609306489,0.32924609887899176,0.27079185190100596,0.24299120183579112,0.6893571358762384,0.6440208717957772,0.9038065843621399,0.8341049382716049,44.77777777777778,78.44444444444444,20.296296296296298,41.666666666666664,1.3480280892319898,1.025757047422348,1057.142857142857,6.900785593628084,,0.6085858585858586,2.70805020110221
adams_marchman_2018,394,521,18,26,13,476.26350172664195,0.40291645916856433,0.2849683264768601,0.21231149055502932,0.6702194386987121,0.6699783451627513,0.9166666666666666,0.8187003968253969,44.25,79.28571428571429,21.75,38.607142857142854,1.0818745837075374,1.2192887264328023,984.6153846153846,6.809720469661305,,0.6843434343434344,2.8903717578961645
adams_marchman_2018,395,522,16,30,10,964.5234862643603,0.7090185476994089,0.4267020668787123,0.37192342043212057,0.5838706686524524,0.6194722732119052,0.9680555555555556,0.9398148148148148,40.56666666666667,82.76666666666667,29.133333333333333,52.56666666666667,0.5535654071448118,0.9418653122193508,1585,7.166721612156238,,0.14898989898989898,2.772588722239781
adams_marchman_2018,395,523,16,30,14,952.7216652457166,0.5424999366772764,0.383541232118299,0.32291217311739895,0.5630730864835796,0.6115797833567082,0.9569444444444445,0.9516203703703704,38.7,83.26666666666667,30.2,53.766666666666666,0.5220543805615336,0.5361978729784737,1596.4285714285713,7.230912492192147,,0.14898989898989898,2.772588722239781
adams_marchman_2018,395,524,18,31,17,193.89818811154782,0.25921959530698185,0.24817988380820163,0.29827522862809186,0.7092861695670231,0.6975027409182908,0.9444444444444444,0.9511648745519713,48.35483870967742,95.51612903225806,19.64516129032258,41.45161290322581,1.4095750297393146,1.2577246381817875,829.4117647058823,6.691552509288547,,0.4393939393939394,2.8903717578961645
adams_marchman_2018,395,525,18,29,13,142.83081259182498,0.23593444030821653,0.2759685675233324,0.3067845160930963,0.7415911187436315,0.6663431886270303,0.9435185185185185,0.8946759259259259,50.46666666666667,87.03333333333333,17.466666666666665,41.8,1.5515545024764805,1.007488167308507,678.8461538461538,6.496765419609224,,0.4393939393939394,2.8903717578961645
adams_marchman_2018,395,526,22,18,10,130.41067611374632,0.1758846694583367,0.18665973346290057,0.2562915598486896,0.7483839429491604,0.7917712336364038,0.9598765432098766,0.9049707602339181,51.94444444444444,109.22222222222223,17.166666666666668,28.333333333333332,1.7185486622590203,2.1992540223497996,777.5,6.642659094619897,0.08676470588235294,,3.091042453358316
adams_marchman_2018,395,527,22,14,7,249.34437841591506,0.3374493454035563,0.32769508752042703,0.33083050036109746,0.621511877319474,0.5973477831404882,0.9484126984126984,0.8947368421052632,42.785714285714285,82,25.5,54,0.8154316202751477,0.6958696726195948,703.5714285714286,6.5061037301364255,0.08676470588235294,,3.091042453358316
adams_marchman_2018,395,528,24,18,8,285.9039549019416,0.4115605241904476,0.13108952459756532,0.16162076319758703,0.8702293871737831,0.8910510371094122,0.9228395061728395,0.9002192982456141,58.27777777777778,122.22222222222223,8.166666666666666,14.61111111111111,2.7642358219621164,3.2245145953197634,681.25,6.449547021310913,0.18676470588235294,,3.1780538303479458
adams_marchman_2018,395,529,24,14,6,179.35068069752805,0.2699282117644182,0.15704621208416247,0.24569256091998404,0.8467373808705831,0.7844945764321709,0.9513888888888888,0.8858082706766918,58.42857142857143,105.57142857142857,10.071428571428571,29.071428571428573,2.595287302092878,2.4262610755313547,666.6666666666666,6.471970175168803,0.18676470588235294,,3.1780538303479458
adams_marchman_2018,395,530,36,13,5,110.96170510586073,0.21144448100086288,0.14213829804176023,0.11194795681552597,0.8932061588855583,0.9237023287941959,0.9057539682539683,0.6080827067669173,59.5,85.14285714285714,5.714285714285714,7.285714285714286,3.2248701110253646,3.6944929115725027,580,6.346319245580257,,,3.58351893845611
adams_marchman_2018,395,531,36,18,3,112.73124382057235,0.14462566681067154,0.23064397643741474,0.10148341302481373,0.7595662657152719,0.87489998305922545,0.9112654320987654,0.9192251461988304,51.05555555555556,122.88888888888889,14.555555555555555,16.833333333333332,2.2347610240933573,2.891521839958181,791.6666666666666,6.667239727288256,,,3.58351893845611
adams_marchman_2018,396,532,16,32,17,619.7759616563543,0.40234385820139074,0.2961314799975097,0.2538323898148725,0.5844714575167569,0.5654285000618906,0.9305555555555556,0.9116753472222222,39.46875,74.59375,27.53125,56.6875,0.7089337603788508,0.6169225317315478,1282.3529411764705,7.0706793557187915,,0.4696969696969697,2.772588722239781
adams_marchman_2018,396,533,16,30,13,469.3062938379342,0.33182317505045306,0.3143274516776587,0.24215513619269638,0.5941911790564548,0.46076332766302674,0.9202508960573477,0.9003136200716846,39.58064516129032,59.61290322580645,26.677419354838708,70.03225806451613,0.6412835289248905,-0.14761004731023966,1057.6923076923076,6.902708438750929,,0.4696969696969697,2.772588722239781
adams_marchman_2018,396,534,18,30,9,793.965959247904,0.5784223202673355,0.33312276778889827,0.28101155786926957,0.5205989924325717,0.5392459842321671,0.9328703703703703,0.9284722222222223,34.8,71.9,32.36666666666667,61.8,0.055350260574229856,0.09949382371579751,1052.7777777777778,6.784537847141866,,0.5151515151515151,2.8903717578961645
adams_marchman_2018,396,535,19,31,13,494.8533193708088,0.3542987580962946,0.30713815874645767,0.2564308115633802,0.6986139454236706,0.6356527252036456,0.9314516129032258,0.9056899641577061,47.35483870967742,83.25806451612904,19.70967741935484,47.16129032258065,1.7551639504361092,0.9859351485449618,1078.8461538461538,6.915377587021878,,0.5151515151515151,2.9444389791664403
adams_marchman_2018,396,536,22,16,7,338.1497273327868,0.3253285925415557,0.3183967368193846,0.2670176403597574,0.7101692485458103,0.5658261515900258,0.9174836601307189,0.8475232198142415,47.411764705882355,74.82352941176471,18.647058823529413,54,2.038708426109664,0.2696046173777076,914.2857142857143,6.768909372341827,0.06764705882352941,,3.091042453358316
adams_marchman_2018,396,537,22,7,4,221.7355782608345,0.37723891151920624,0.3175330708169674,0.3958255036937164,0.7374881287823479,0.6392688389788905,0.8333333333333334,0.7217105263157895,43.6,70.3,16.4,39.4,1.8192375088214996,1.6057060674181276,650,6.427095745619681,0.06764705882352941,,3.091042453358316
adams_marchman_2018,396,538,24,17,9,1145.810605835207,0.7586866639253202,0.37908748578872214,0.3360298178692859,0.6694667761551601,0.6381097421810453,0.9125816993464052,0.8610681114551083,43.1764705882353,84.41176470588235,22.529411764705884,46.470588235294116,1.2618103746260168,1.5911291003723895,1477.7777777777778,7.038641504199002,0.12941176470588237,,3.1780538303479458
adams_marchman_2018,396,539,24,9,2,813.1727983645296,0.3244671788221912,0.45342903608007495,0.3674133488979505,0.49659414659414663,0.6277209105522673,0.8692129629629629,0.724780701754386,31,65.08333333333333,31.583333333333332,45.083333333333336,-0.014088785307671214,0.8950569193530269,2550,7.817756619752862,0.12941176470588237,,3.1780538303479458
adams_marchman_2018,396,540,35,11,6,265.98872156540773,0.343518098511661,0.24061820473610995,0.1667400539320703,0.7790632899766388,0.7015368107940316,0.9178240740740741,0.8125,52.25,86.66666666666667,13.833333333333334,36.833333333333336,2.1206607420459096,0.9595867334692255,650,6.421833764904234,,,3.5553480614894135
adams_marchman_2018,397,541,16,30,15,267.00499371110396,0.30457447215156064,0.3148982719646546,0.2832037839078716,0.7055433446788342,0.685605432605606,0.9513888888888888,0.9502314814814815,48.8,94.46666666666667,19.7,42.36666666666667,1.738252911691398,1.4205501908300218,898.3333333333334,6.758216379620327,,0.43686868686868685,2.772588722239781
adams_marchman_2018,397,542,16,31,14,774.6498677353644,0.5260866480512735,0.2695067422640148,0.2907238494847511,0.6709815267769973,0.5887057906524021,0.9135304659498208,0.9213709677419355,44.483870967741936,78.12903225806451,21.29032258064516,54.54838709677419,1.1919954462220321,0.632176454007208,921.4285714285714,6.65457376828284,,0.43686868686868685,2.772588722239781
adams_marchman_2018,397,543,18,30,11,230.16792288951285,0.31157275031092696,0.2496047192485803,0.27575143948503905,0.6920209119469654,0.5943879222174497,0.9208333333333333,0.9335648148148148,46.266666666666666,80.16666666666666,20.033333333333335,54.266666666666666,1.4240629075183442,0.6646571506929839,904.5454545454545,6.769208552090162,,0.6313131313131313,2.8903717578961645
adams_marchman_2018,397,544,19,26,14,691.8282833379781,0.43557787625429756,0.3119620760142091,0.3352053602068758,0.6938511347846259,0.6645193619812113,0.9315843621399177,0.9189814814814815,46.62962962962963,87.62962962962963,20.444444444444443,44.7037037037037,1.2000817562863308,1.3141865718720003,935.7142857142857,6.716931059665618,,0.6313131313131313,2.9444389791664403
adams_marchman_2018,397,545,22,18,8,173.94452112260228,0.2070588885650243,0.2478672018668333,0.25949929229789154,0.8005688122887202,0.7981845288999988,0.9459876543209876,0.8855994152046783,54.666666666666664,108.61111111111111,13.444444444444445,26,2.203136720485575,2.378526066171875,828.125,6.700231041318489,0.36617647058823527,,3.091042453358316
adams_marchman_2018,397,546,22,13,1,,,0.4315128003428375,0.4025551039995379,0.651008582415355,0.6367117880225296,0.9743589743589743,0.9200404858299596,45.69230769230769,89.53846153846153,24.46153846153846,50.30769230769231,1.352907949100557,1.6546276720262523,,,0.36617647058823527,,3.091042453358316
adams_marchman_2018,397,547,24,18,9,153.31974577478417,0.2104538495698726,0.14782523408487316,0.0717819598637562,0.8636466869085943,0.9253171676541364,0.9614197530864198,0.91703216374269,60.111111111111114,129.16666666666666,9.11111111111111,10.222222222222221,2.870869078993589,3.439829508286878,747.2222222222222,6.597029859008996,0.5,,3.1780538303479458
adams_marchman_2018,397,548,24,14,5,564.745517910501,0.4387800520004453,0.389027209319034,0.2944280653439712,0.6837381619879973,0.6073127338445541,0.9246031746031746,0.881109022556391,45.5,81.21428571428571,21.071428571428573,52.714285714285715,2.001281023722901,1.1890549082777466,1385,7.1598377209303905,0.5,,3.1780538303479458
adams_marchman_2018,397,549,36,14,4,287.22813232690146,0.2719259022215353,0.20458179099095491,0.17539066651856836,0.8321057646260676,0.8374654264347706,0.9136904761904762,0.9163533834586466,54.5,116.64285714285714,11.285714285714286,22.642857142857142,2.6772918918068136,2.614793961170699,1025,6.904129107431416,,,3.58351893845611
adams_marchman_2018,397,550,36,18,7,465.66644510340024,0.38892504505689823,0.3192617213739546,0.19723918613824795,0.5938285423611551,0.707908064312635,0.9328703703703703,0.8698830409356725,40.111111111111114,94.44444444444444,27.055555555555557,37.77777777777778,0.8724804390058439,1.4039460355437496,1460.7142857142858,7.229797119403548,,,3.58351893845611
adams_marchman_2018,398,551,16,30,13,386.8429085526009,0.40849333022403284,0.27302292524048216,0.24712353374063645,0.7014678308262515,0.6869196578461444,0.9291666666666667,0.9284722222222223,47.43333333333333,92.16666666666667,19.466666666666665,41.53333333333333,1.676928148840631,1.408305620536938,1011.5384615384615,6.8470133459912415,,0.24242424242424243,2.772588722239781
adams_marchman_2018,398,552,16,28,18,779.6691522229828,0.5448611082078584,0.2909892700816449,0.2872689559968402,0.6949708648868753,0.6574821774222492,0.9444444444444444,0.9276819923371648,47.37931034482759,88.72413793103448,20.620689655172413,44.86206896551724,1.3477212046070521,1.1667923364335102,1113.888888888889,6.853175473662567,,0.24242424242424243,2.772588722239781
adams_marchman_2018,398,553,18,32,15,746.3283140689172,0.45166082620786036,0.316365257304936,0.27987471672162273,0.676528988467463,0.6100198597600228,0.9461805555555556,0.93359375,45.875,82.1875,22.25,52.25,1.3638970659172838,0.7305884809209559,1168.3333333333335,6.946025624880151,,0.27525252525252525,2.8903717578961645
adams_marchman_2018,398,554,18,28,18,769.4058058772673,0.5277858915526331,0.2916336980758045,0.287530281225941,0.6947845359024899,0.6586315358171045,0.9410919540229885,0.9193007662835249,47.03448275862069,87.51724137931035,20.724137931034484,44.86206896551724,1.3080102271773362,1.170528405069628,1108.3333333333335,6.854828264404509,,0.27525252525252525,2.8903717578961645
adams_marchman_2018,398,555,22,18,8,376.2479235823103,0.4306547097381475,0.29024496270877387,0.2805138024611015,0.7152233125554376,0.6918490764752276,0.9483024691358025,0.8943713450292398,49.111111111111114,94.38888888888889,19.166666666666668,41.55555555555556,1.6698879545833327,1.4138614504247797,918.75,6.745680024370444,0.06323529411764706,,3.091042453358316
adams_marchman_2018,398,556,22,14,8,208.71096726608033,0.3138907139436147,0.27726246444156416,0.21965285420308808,0.7510515954368354,0.7491416737630626,0.9255952380952381,0.8599624060150376,50.642857142857146,98.35714285714286,16,32.357142857142854,1.8229329973068942,1.6232520927298468,659.375,6.448449965718982,0.06323529411764706,,3.091042453358316
adams_marchman_2018,398,557,24,18,9,368.15512280076246,0.40022566864169595,0.23039214933582594,0.2602256099077041,0.7802871763549513,0.7440276998614606,0.9521604938271605,0.8969298245614035,53.888888888888886,102.5,14.666666666666666,33.833333333333336,2.077488675192517,2.0015230567142015,702.7777777777778,6.470252246404242,0.11029411764705882,,3.1780538303479458
adams_marchman_2018,398,558,24,14,4,298.8693973404883,0.42385787553251203,0.1583588910545588,0.23132062218937818,0.885713798822579,0.7143593044843233,0.9672619047619048,0.9046052631578947,62,98.71428571428571,7.642857142857143,38.785714285714285,3.2156599697499906,1.8336615533275005,731.25,6.529471801868427,0.11029411764705882,,3.1780538303479458
adams_marchman_2018,399,559,17,24,12,215.2781850761869,0.23177791738210346,0.23156507659562245,0.2165532054344441,0.5879203505923689,0.6279236763656206,0.8530982905982906,0.7996794871794872,36.42307692307692,73.07692307692308,25,42.07692307692308,0.5168875513475935,0.735747457182303,820.8333333333334,6.683775699361556,,0.7095959595959596,2.833213344056216
adams_marchman_2018,399,560,17,28,14,184.0199015754116,0.28524617848149075,0.24924557763239719,0.17734024111735258,0.724330024713557,0.7355554924735282,0.8870370370370371,0.8233796296296296,47.6,85.83333333333333,16.266666666666666,32.733333333333334,1.6282143063678656,1.4155690637365597,680.3571428571429,6.486408689580792,,0.7095959595959596,2.833213344056216
adams_marchman_2018,399,561,20,24,14,463.41422858253634,0.38985622124614466,0.22775680023165512,0.21611587820602005,0.7138186187897685,0.7338620101874707,0.9086538461538461,0.8664529914529915,46.76923076923077,92.61538461538461,18.653846153846153,32.15384615384615,1.2832069267314192,1.5965981830311764,882.1428571428571,6.698479896734106,,,2.995732273553991
adams_marchman_2018,399,562,20,32,14,418.62953409092717,0.3468321571818144,0.30085017155523736,0.300780873784592,0.7593167298443032,0.7531808899251163,0.94140625,0.9422743055555556,51.40625,104.15625,16.375,31.53125,2.090741825551019,2.0575657998944523,833.9285714285714,6.655523068431099,,,2.995732273553991
adams_marchman_2018,400,563,16,29,12,424.325445069387,0.3205602924428804,0.2926377882148308,0.16119400132969522,0.49005951809200854,0.5132842056712449,0.8802681992337165,0.8805076628352491,32.310344827586206,65.58620689655173,31.06896551724138,61.206896551724135,0.13107483354940583,0.07105369767097436,1435.4166666666667,7.225130756278352,,0.7196969696969697,2.772588722239781
adams_marchman_2018,400,564,16,30,15,273.96993230922953,0.38426654670547095,0.3072411999699465,0.23196800248280874,0.5865018517161221,0.5540559024566504,0.8815104166666666,0.8498263888888888,37.84375,68.5625,25.625,53.8125,0.647321915144571,0.45785947943247696,691.6666666666666,6.468914033774845,,0.7196969696969697,2.772588722239781
adams_marchman_2018,400,565,19,32,11,818.7851310991736,0.528503794815879,0.21692424521264062,0.20131191815246732,0.4469079349783586,0.462350753156684,0.8736979166666666,0.8758680555555556,27.96875,58.125,34.9375,68,-0.39998750346226464,-0.171708337733857,990.9090909090909,6.728376794903815,,0.8409090909090909,2.9444389791664403
adams_marchman_2018,400,566,19,31,15,493.16760408028193,0.4719914365772716,0.2917782430813458,0.22897353844459115,0.59600274362273,0.555535241931131,0.9153645833333334,0.8663194444444444,39.6875,69.59375,26.21875,55.15625,0.7409498188396535,0.36551379482310475,1025,6.828457850415803,,0.8409090909090909,2.9444389791664403
adams_marchman_2018,400,567,23,17,7,231.32640307994407,0.3402775029265177,0.2743343738245385,0.21553937371969273,0.7334534990958488,0.6017225606167836,0.9035947712418301,0.8382352941176471,48.411764705882355,78.11764705882354,16.647058823529413,49.294117647058826,1.7687011663506589,0.7010443207619067,714.2857142857143,6.523512549080577,0.3088235294117647,,3.1354942159291497
adams_marchman_2018,400,568,23,11,3,14.433756729740644,0.01581880512302722,0.1815889535074615,0.2102495179192127,0.7391653004522262,0.6702221092349527,0.892361111111111,0.7850877192982456,47.5,79.91666666666667,16.75,39.416666666666664,1.5255439918653548,1.1480938457864593,916.6666666666666,6.820660746116387,0.3088235294117647,,3.1354942159291497
adams_marchman_2018,400,569,26,16,8,161.4319294846681,0.25842244182821555,0.22823930776167814,0.1587175484962652,0.7681022632421352,0.6342990311718242,0.8940972222222222,0.8305921052631579,50,80.9375,14.375,45.3125,1.9539283071258426,0.6145159799255264,715.625,6.546644106331206,0.4647058823529412,,3.258096538021482
adams_marchman_2018,400,570,26,10,3,104.08329997330664,0.15667258424774105,0.28146329056420916,0.20988635423388718,0.7781598614291766,0.6045703601367379,0.9027777777777778,0.7613636363636364,51.36363636363637,70.9090909090909,13.636363636363637,44.81818181818182,2.134681369102683,0.4731793122245646,691.6666666666666,6.531134908335124,0.4647058823529412,,3.258096538021482
adams_marchman_2018,400,571,32,14,4,193.64916731037084,0.2490797983215908,0.29099911798894684,0.26761927901749416,0.6999837915672278,0.6726365994241701,0.9236111111111112,0.8886278195488722,46.57142857142857,91.21428571428571,19.928571428571427,43.857142857142854,1.3419991678968437,1.3568421228264411,800,6.661803368395537,,,3.4657359027997265
adams_marchman_2018,400,572,32,18,5,229.53757862276058,0.35098200248671824,0.30157658092533873,0.19491365925625082,0.6451638112000293,0.6978482366448379,0.9189814814814815,0.9199561403508771,43.55555555555556,98.66666666666667,22.61111111111111,41.166666666666664,1.4485895412278393,1.2076364027302302,615,6.370339083955099,,,3.4657359027997265
adams_marchman_2018,400,573,36,14,4,205.52270758564208,0.2657189681794717,0.19108768965066475,0.22126011179759453,0.8583904078211478,0.8565351895394104,0.9573412698412699,0.6358082706766918,59.57142857142857,83,9.357142857142858,13.642857142857142,3.009188357177912,3.2049107964161054,693.75,6.51356175257831,,,3.58351893845611
adams_marchman_2018,400,574,36,18,6,546.3515351859094,0.5572634077725637,0.28933712934142547,0.18852448132469388,0.6976367528822356,0.6723622619275393,0.8842592592592593,0.881578947368421,45.44444444444444,91,18.22222222222222,43,1.7329929913117188,1.1721172635251405,1025,6.807733142991827,,,3.58351893845611
adams_marchman_2018,401,575,16,32,17,936.0920800610062,0.4933180543860515,0.35832027598094257,0.261400012241403,0.5840598630105643,0.6777428484945063,0.9574652777777778,0.9500868055555556,40.40625,93.1875,28.53125,43.625,0.7892923341941434,1.4502745415444904,1779.4117647058824,7.363952581013743,,0.3106060606060606,2.772588722239781
adams_marchman_2018,401,576,16,29,15,614.7347472884622,0.46497099974084954,0.31420940962884564,0.25389810568211785,0.6563547257945037,0.6772481038838806,0.9226851851851852,0.8831018518518519,44.03333333333333,87.1,22.4,40.06666666666667,1.0778131309615138,1.3478942737604152,1076.6666666666667,6.867004809959755,,0.3106060606060606,2.772588722239781
adams_marchman_2018,401,577,18,28,8,432.5872125116176,0.3545860386694435,0.29951432026885555,0.2427811668234565,0.7218025437333047,0.7476727746982358,0.8970306513409961,0.8139367816091954,46.758620689655174,85.96551724137932,17.82758620689655,31.24137931034483,1.8375520204621079,1.9520483164884719,934.375,6.7742607454777835,,0.5,2.8903717578961645
adams_marchman_2018,401,578,18,6,1,,,0.3856616529007354,0.3292755701636551,0.6433954933954934,0.6014568617656167,0.8865740740740741,0.8668981481481481,44.333333333333336,78.5,19.5,46.333333333333336,1.1830180998868771,0.1256986047807632,,,,0.5,2.8903717578961645
adams_marchman_2018,401,579,22,17,7,250.7726156539122,0.3076814481586152,0.30870401927767166,0.27368359091916267,0.7115109703495441,0.7457705551898157,0.9607843137254902,0.8854489164086687,49.529411764705884,102.11764705882354,19.647058823529413,32.470588235294116,1.5837269633674103,1.9982290050748661,789.2857142857143,6.629929119199999,0.43970588235294117,,3.091042453358316
adams_marchman_2018,401,580,23,12,3,253.7222891273055,0.33561624762581443,0.2145189034827761,0.21787053158414843,0.8215888118701418,0.7607100919758956,0.8819444444444444,0.8152412280701754,52.25,95.08333333333333,11.25,28.833333333333332,2.5646745048107613,2.3346301875139455,750,6.582308829735846,0.4852941176470588,,3.1354942159291497
adams_marchman_2018,401,581,24,16,7,142.46971273789757,0.2084241172537374,0.19901246784880736,0.261144019262673,0.7917124790947112,0.7916124712222862,0.9485294117647058,0.8544891640866873,54.64705882352941,103.41176470588235,13.647058823529411,26.470588235294116,2.2831515511389666,2.346080688697876,746.4285714285714,6.597767644004435,0.5308823529411765,,3.1780538303479458
adams_marchman_2018,401,582,24,5,1,,,0.20264366046091845,0.26851302324550985,0.909375,0.8020245737034057,0.9527777777777777,0.8657894736842106,62.8,106.6,5.8,25,3.991906149371182,2.783570022739258,,,0.5308823529411765,,3.1780538303479458
adams_marchman_2018,401,583,29,14,6,734.7902194957869,0.584203328928665,0.2640265036517972,0.27164387269559204,0.7869320748827391,0.745823929059484,0.9206349206349207,0.605733082706767,52.142857142857146,69.64285714285714,14.142857142857142,22.428571428571427,1.9123942169726098,1.9601696097275563,916.6666666666667,6.642914075184409,0.7779411764705882,,3.367295829986474
adams_marchman_2018,401,584,30,18,8,346.9252698451683,0.35020260472141534,0.24680826341934223,0.1942902176379949,0.6384887121688384,0.680719041730005,0.9135802469135802,0.8698830409356725,42.55555555555556,90.88888888888889,23.22222222222222,41.333333333333336,1.1114900304069744,1.0593444231949507,962.5,6.815170011508785,0.7779411764705882,,3.4011973816621555
adams_marchman_2018,401,585,36,13,7,120.26755886059097,0.20611258500446486,0.1522886433474964,0.16072969535666645,0.8626378024300534,0.8910089918707823,0.9345238095238095,0.6179511278195489,58.357142857142854,82.85714285714286,8.928571428571429,11.071428571428571,2.5495346824759855,2.973229479161234,571.4285714285714,6.3297917909671435,,,3.58351893845611
adams_marchman_2018,401,586,36,16,3,578.9717897560583,0.7400259774349514,0.23689422991429496,0.21004594552494635,0.6539759819174111,0.7025014267156346,0.8984375,0.8959703947368421,42.8125,96.0625,21.875,40.125,1.2970229705635918,1.472570971547539,1016.6666666666666,6.769723279879657,,,3.58351893845611
adams_marchman_2018,402,587,15,31,19,289.61685720380325,0.31141692384957675,0.20414360351821503,0.21277546133766384,0.7042806950050278,0.664307971797489,0.9206989247311828,0.910394265232975,47.03225806451613,87.70967741935483,19.258064516129032,43.38709677419355,1.3778774456929932,1.1203270145988486,931.578947368421,6.7916064162731,,0.3333333333333333,2.70805020110221
adams_marchman_2018,402,588,15,32,16,708.1942265367602,0.5177501095442762,0.3645504336864961,0.28431768981591354,0.5542001051151073,0.5862297543055757,0.94140625,0.8834635416666666,37.84375,73.4375,29.9375,53.78125,0.5235039802868338,0.7168742225648026,1401.5625,7.121801124058396,,0.3333333333333333,2.70805020110221
adams_marchman_2018,402,589,18,31,12,507.2579285340014,0.4206460566760691,0.2833681194053948,0.15205549169405777,0.6457384913304858,0.6901415140398672,0.9314516129032258,0.9043458781362007,43.83870967741935,90.6774193548387,23.225806451612904,39.54838709677419,1.104496485739782,1.097284306625456,1066.6666666666667,6.885279786752933,,0.5858585858585859,2.8903717578961645
adams_marchman_2018,402,590,18,32,15,89.57571949925673,0.12882249354081737,0.1768780642373508,0.21152700294250598,0.8241590209088164,0.7296472809767981,0.9344618055555556,0.8982204861111112,55.8125,94.28125,11.46875,35.0625,2.3315679250720804,1.3473308978656862,696.6666666666666,6.538599743718667,,0.5858585858585859,2.8903717578961645
adams_marchman_2018,402,591,23,13,7,198.13114944640174,0.25207860086161366,0.17187039790923733,0.21566676461841064,0.7062368549790461,0.7618557892291452,0.938034188034188,0.8836032388663968,48,103.6923076923077,19.53846153846154,30.615384615384617,1.14809267748199,1.384225591580313,778.5714285714286,6.630107277298256,0.6088235294117647,,3.1354942159291497
adams_marchman_2018,402,592,26,16,9,506.0742150229659,0.4896401213213151,0.2503477114792904,0.19990130972034,0.7694652850642872,0.8071514399228431,0.9534313725490196,0.8335913312693498,53.11764705882353,104.94117647058823,15.529411764705882,21.764705882352942,1.8310975648713228,2.1203586317021097,788.8888888888889,6.545525864202577,0.7602941176470588,,3.258096538021482
adams_marchman_2018,402,593,26,12,5,257.0262632494975,0.4110680015415618,0.3019849586482609,0.30562529689210216,0.7312840962998103,0.6834066064453453,0.8547008547008547,0.7555668016194332,47.23076923076923,78.15384615384616,14.307692307692308,36.69230769230769,1.8365250886749165,1.744002051548472,620,6.36184943242627,0.7602941176470588,,3.258096538021482
adams_marchman_2018,402,594,30,12,4,171.99806200458576,0.2986532772136209,0.2699132512700456,0.2216267393038189,0.8710122269823762,0.8419016999382865,0.8988095238095238,0.5606203007518797,55.857142857142854,72.07142857142857,8.857142857142858,13.142857142857142,3.0161490287923227,2.740390225264744,525,6.227756210951984,0.8838235294117647,,3.4011973816621555
adams_marchman_2018,402,595,30,17,6,650.4645775648868,0.6659205333388143,0.3551652462902249,0.1771369074064073,0.746585049966026,0.8019782353462431,0.9575163398692811,0.901702786377709,52.529411764705884,109.70588235294117,16.41176470588235,27.352941176470587,2.63920600374524,2.496399334398432,1345.8333333333333,7.054345303950235,0.8838235294117647,,3.4011973816621555
adams_marchman_2018,402,596,35,11,8,283.788150361699,0.39302928003738535,0.1406569606053557,0.11178395587409595,0.9077170570900769,0.9231833358749658,0.9186507936507936,0.5765977443609023,59.92857142857143,81.42857142857143,6.214285714285714,6.214285714285714,3.103489937795258,3.2929506730139066,550,6.228968076599307,,,3.5553480614894135
adams_marchman_2018,402,597,35,17,6,650.4645775648868,0.6659205333388143,0.3549499457118345,0.1761498786282824,0.747463610925683,0.804163782336033,0.9566993464052288,0.8989938080495357,52.529411764705884,109.52941176470588,16.352941176470587,27.11764705882353,2.6423701093174987,2.5036574750867384,1345.8333333333333,7.054345303950235,,,3.5553480614894135
adams_marchman_2018,403,598,16,32,11,1131.5616722838477,0.7480855483526755,0.4419426962917998,0.3836551409245094,0.5326960549510483,0.5553862512549124,0.9717881944444444,0.9353298611111112,37.28125,76.125,32.6875,58.5625,0.21980382925551736,0.4605031067101431,1752.2727272727273,7.239743200105387,,0.26515151515151514,2.772588722239781
adams_marchman_2018,403,599,16,31,11,478.53944456021594,0.4754345711141489,0.3243732335480388,0.2883671343144147,0.4606910506656272,0.48765747413130384,0.9189068100358423,0.8702956989247312,30.709677419354836,60.12903225806452,35.45161290322581,65.19354838709677,-0.18183691337836794,-0.05995687696619325,1200,7.000117215452429,,0.26515151515151514,2.772588722239781
adams_marchman_2018,403,600,18,32,12,330.7117553875506,0.2742580920582032,0.3248081170731792,0.33452733261466505,0.6044331459447881,0.5524704805919508,0.9188368055555556,0.935763888888889,39.90625,75.71875,26.25,59.03125,0.8571425180685656,0.5687417016140913,1077.0833333333333,6.945421012361343,,0.8181818181818182,2.8903717578961645
adams_marchman_2018,403,601,18,32,20,278.400034029036,0.297586228848695,0.22282134803597514,0.23503738424583126,0.6943984735225909,0.6989603345343617,0.9283854166666666,0.9333767361111112,46.875,94.9375,19.96875,39.46875,1.4353164179625966,1.3844430133844914,982.5,6.8496020772356285,,0.8181818181818182,2.8903717578961645
adams_marchman_2018,403,602,23,35,13,268.40877264122577,0.3500584288732296,0.28435088259724906,0.2737120481787939,0.6926354699687567,0.6410285312891402,0.8964285714285715,0.8586466165413534,45.08571428571429,83.8,19.457142857142856,46.714285714285715,1.5610611109194366,0.9963498114459536,888.4615384615385,6.738947127020673,0.027205882352941177,,3.1354942159291497
adams_marchman_2018,403,603,23,23,8,924.9276033444842,0.6762368425744972,0.4174769249053664,0.35144116786701096,0.49503005148421475,0.5490881690597499,0.9114583333333334,0.8004385964912281,33.375,67.33333333333333,32.25,54.333333333333336,-0.29362984083821103,0.3718840943705471,1556.25,7.165699867908696,0.027205882352941177,,3.1354942159291497
adams_marchman_2018,403,604,30,13,6,310.64449134018133,0.3738337350503865,0.17442527137824967,0.19040962541462284,0.802360867766587,0.7322257883140956,0.8675213675213675,0.8810728744939271,50.30769230769231,99.76923076923077,12.153846153846153,34.15384615384615,2.074852965434075,1.4863115070641235,750,6.558044508854628,0.3352941176470588,,3.4011973816621555
adams_marchman_2018,403,605,30,14,2,512.652416360247,0.29944813490561084,0.35424489843787316,0.3412163850651685,0.5037621133673948,0.5930946494024506,0.8918650793650793,0.7899436090225564,33,75.78571428571429,31.214285714285715,44.285714285714285,0.03236276825809153,0.8915775931191814,1737.5,7.437950816906093,0.3352941176470588,,3.4011973816621555
adams_marchman_2018,403,606,36,11,6,297.06901555025894,0.3985788871122058,0.28074350107017093,0.22340437945301084,0.7883251419923097,0.8328087262397985,0.8981481481481481,0.5734649122807017,51.25,73.5,13.416666666666666,13.666666666666666,2.35534905914141,2.6718731279668257,650,6.4045031452789045,,,3.58351893845611
adams_marchman_2018,403,607,36,10,4,720.0983729093315,0.7297461621214789,0.3324079270319647,0.30029627564094324,0.37989943964081896,0.5479118825143968,0.8597222222222223,0.8572368421052632,24.4,70.8,37.5,59.5,-0.9200347624930472,0.12207132498751784,1312.5,7.015209328725136,,,3.58351893845611
adams_marchman_2018,404,608,16,32,13,925.7230368882698,0.4603310830723275,0.4077983766841223,0.3482667795849445,0.45988660890268407,0.5137850661422334,0.9518229166666666,0.9294704861111112,31.40625,68.5,37.125,65.34375,-0.3206924690974756,-0.1105368525369205,1953.8461538461538,7.4778565475262635,,0.4015151515151515,2.772588722239781
adams_marchman_2018,404,609,16,31,9,1191.7977783350848,0.6807790194510247,0.3900470687515655,0.3557034155259535,0.5079933423967924,0.5002742519624946,0.9318576388888888,0.9055989583333334,34.28125,65.4375,32.8125,64.96875,0.05814455583557346,-0.019286493173879243,1577.7777777777778,7.140675320571509,,0.4015151515151515,2.772588722239781
adams_marchman_2018,404,610,18,31,14,925.4268394448235,0.5689683409216105,0.3205841009691088,0.3078570975944321,0.4530946659706927,0.47791193572258545,0.8927951388888888,0.8956163194444444,28.75,62,35.53125,66.96875,-0.4130550675332923,-0.24770910434456772,1414.2857142857142,7.092518432759959,,0.5,2.8903717578961645
adams_marchman_2018,404,611,18,30,15,749.1582578054488,0.5378312333510541,0.3358816052368459,0.28986803461401744,0.5973302134798467,0.5832842744371332,0.8981481481481481,0.8993055555555556,39.36666666666666,77.43333333333334,25.3,52.06666666666667,0.931450897466919,1.0047770545473247,1271.6666666666665,7.00614348190393,,0.5,2.8903717578961645
adams_marchman_2018,404,612,21,17,8,218.12410458268934,0.3347440981881499,0.17479015141704912,0.24006943786806081,0.7284923955015374,0.6872259894458865,0.9044117647058824,0.8664860681114551,47.88235294117647,91.05882352941177,17.235294117647058,40.64705882352941,1.5007938211648748,1.3499868143476086,696.875,6.499937589042354,0.4661764705882353,,3.044522437723423
adams_marchman_2018,404,613,21,13,5,241.3503677229434,0.3595123758209928,0.31963437098697234,0.274342389771876,0.6819250507220432,0.558981533257253,0.8759920634920635,0.8092105263157895,44.21428571428571,69.57142857142857,18.857142857142858,53.42857142857143,1.797337771050575,0.7654667292597891,830,6.6766015291051435,0.4661764705882353,,3.044522437723423
adams_marchman_2018,404,614,23,18,8,169.26179005147196,0.22532270671768184,0.2560343801259203,0.1747984165990884,0.726507549874998,0.7354873344943427,0.8896604938271605,0.8077485380116959,47,91.11111111111111,17.055555555555557,31.666666666666668,1.5275706460884535,1.205073011775143,721.875,6.559081377390076,0.5514705882352942,,3.1354942159291497
adams_marchman_2018,404,615,24,13,4,246.22144504490262,0.3694473529956748,0.2303528674876402,0.21208166912674198,0.8076129594212317,0.7569385439217072,0.9126984126984127,0.8092105263157895,53.714285714285715,94.71428571428571,12,28.285714285714285,2.6618737589785697,2.1912963069069984,687.5,6.48266180798483,0.5514705882352942,,3.1780538303479458
adams_marchman_2018,404,616,30,13,5,528.6775955154521,0.4584683889385567,0.25991450369086333,0.21172985336038883,0.7138777580781606,0.7604379385993218,0.922008547008547,0.9124493927125507,47.69230769230769,106.23076923076923,18.692307692307693,32.46153846153846,1.5931069851301556,2.0261124813999762,945,6.754738617152484,0.7602941176470588,,3.4011973816621555
adams_marchman_2018,404,617,30,18,9,569.9658859187198,0.5735535611794305,0.32880037502971965,0.19962663348805548,0.614850631022559,0.7320099522295607,0.8958333333333334,0.8662280701754386,40,96.38888888888889,24.5,35.27777777777778,1.0370389630159513,1.400902945209619,938.8888888888889,6.691660260787041,0.7602941176470588,,3.4011973816621555
adams_marchman_2018,404,618,36,12,7,213.94814681087922,0.2724297027513754,0.1912363052677073,0.14591936830381824,0.8156671228826544,0.7955073165992351,0.8571428571428571,0.5446428571428572,51.142857142857146,65.28571428571429,10.571428571428571,17.5,2.1655572431833456,1.7220833796792785,757.1428571428571,6.597007620936135,,,3.58351893845611
adams_marchman_2018,404,619,36,18,6,644.4797643577854,0.6486514971783713,0.32962574207328216,0.16746111120737106,0.6762867938257087,0.7622336254862866,0.9135802469135802,0.8728070175438597,44.77777777777778,102,21,30.666666666666668,1.6018837820283436,1.8232257307138355,1204.1666666666667,6.93869441429835,,,3.58351893845611
adams_marchman_2018,405,620,16,31,16,939.7251371190054,0.5307184080067175,0.367466853365657,0.3226696568333267,0.5261761363347538,0.6115656300677327,0.942652329749104,0.918010752688172,35.483870967741936,80.74193548387096,32.38709677419355,51.45161290322581,0.0825353184049283,0.6810251729354163,1600,7.2377254168668825,,0.6565656565656566,2.772588722239781
adams_marchman_2018,405,621,16,30,15,393.29953446390425,0.3423392564405272,0.23509804529726622,0.22444992195395252,0.785164257365442,0.7724980727059184,0.9198028673835126,0.8969534050179212,52.354838709677416,101.25806451612904,13.870967741935484,27.903225806451612,2.142138309521196,2.243046621175416,881.6666666666666,6.717926236604478,,0.6565656565656566,2.772588722239781
adams_marchman_2018,405,622,18,29,8,410.7783335154305,0.4915416427826493,0.2660300952220304,0.21529065110730364,0.7848338198927043,0.720874426504111,0.9412037037037037,0.8837962962962963,54.03333333333333,91.66666666666667,13.733333333333333,35.6,2.540634995671379,1.6096731873579757,859.375,6.654345677351508,,0.8080808080808081,2.8903717578961645
adams_marchman_2018,405,623,18,18,4,248.746859276655,0.3555810285032666,0.33653066696488915,0.2876341146294749,0.6306171606751952,0.515640530705642,0.8270833333333334,0.7864583333333334,37.15,56.1,22.4,57.15,1.0664195285953304,0.1996989743684296,837.5,6.688262312089132,,0.8080808080808081,2.8903717578961645
adams_marchman_2018,405,624,21,16,8,192.92740122350983,0.20001019010945512,0.2748768541496603,0.26442303897790054,0.7215737931223006,0.7486670918388088,0.9513888888888888,0.8643092105263158,49.6875,99.5,18.8125,31.875,1.6698379567903836,2.1042101145649452,946.875,6.835532630406929,0.5691176470588235,,3.044522437723423
adams_marchman_2018,405,625,21,6,1,,,0.13447658219271388,0.1254893798350161,0.9225463591135233,0.842949665510641,0.9490740740740741,0.7872807017543859,63.166666666666664,99.5,5.166666666666667,20.166666666666668,3.708517437936875,2.548826961866635,,,0.5691176470588235,,3.044522437723423
adams_marchman_2018,405,626,24,17,8,213.36483677360843,0.25379077882791196,0.20817101394885662,0.2668718952495479,0.8418023497081988,0.7147907862803944,0.9544753086419753,0.8603801169590644,58.22222222222222,94.61111111111111,10.5,36.166666666666664,2.7962185626464353,1.546910472387139,690.625,6.505513112789551,0.7485294117647059,,3.1780538303479458
adams_marchman_2018,405,627,24,11,7,443.8736413933695,0.38302769788926333,0.249120734365624,0.1985613084714595,0.7153077046288139,0.6428931843720984,0.9038461538461539,0.7656882591093117,47.46153846153846,75.6923076923077,17.615384615384617,40.69230769230769,1.5714287982056743,0.9715822664612647,892.8571428571429,6.719446531252519,0.7485294117647059,,3.1780538303479458
adams_marchman_2018,405,628,31,14,5,334.4772040064913,0.4272573005375288,0.21100024004430873,0.21792250656522832,0.7995865537357134,0.7374364361916926,0.9365079365079365,0.8754699248120301,54.57142857142857,100.92857142857143,12.857142857142858,32.142857142857146,2.499805449523887,1.7161260933815787,800,6.613671796314467,0.8955882352941177,,3.4339872044851463
adams_marchman_2018,405,629,30,18,5,622.8964600958975,0.6800415148925311,0.2591734202988067,0.19025658088772482,0.5917491429509371,0.7449913739388213,0.8742283950617284,0.8819444444444444,37.333333333333336,100.27777777777777,25.61111111111111,33.77777777777778,0.7467153027860952,1.6253483606101937,910,6.6258641106213965,0.8955882352941177,,3.4011973816621555
adams_marchman_2018,405,630,36,14,8,103.45590848279281,0.18922508949783162,0.2856917040354766,0.30817592946503947,0.7473236099650779,0.6931359887529246,0.9305555555555556,0.6113721804511278,50.85714285714286,65.42857142857143,16.142857142857142,27.5,1.880087429379463,1.7107499012670575,540.625,6.276976245662028,,,3.58351893845611
adams_marchman_2018,405,631,36,18,11,195.9243824447678,0.29494671243504683,0.1629086917089749,0.13905365531208413,0.6751430962498968,0.8153424002828784,0.8341049382716049,0.8709795321637427,40.666666666666664,108.66666666666667,19.38888888888889,23.72222222222222,0.8794290019985274,1.7094458416820433,731.8181818181819,6.558778572170711,,,3.58351893845611
adams_marchman_2018,406,632,17,29,7,1032.4641121400507,0.9072691456612958,0.44689031312251,0.3593780744915539,0.4843825156211047,0.506483164115807,0.9046934865900383,0.8979885057471264,30.275862068965516,67.41379310344828,34.86206896551724,61.89655172413793,-0.16913805111225128,0.2234729446715302,1882.142857142857,7.283818075022143,,0.51010101010101,2.833213344056216
adams_marchman_2018,406,633,17,26,14,572.663072412998,0.5368795052351336,0.29398862937132897,0.24118617325591477,0.5382024141432107,0.5709744693609595,0.9342948717948718,0.8926282051282052,36.26923076923077,72.96153846153847,31,55.57692307692308,0.18969909476951208,0.24131065058555615,1016.0714285714286,6.786120498507129,,0.51010101010101,2.833213344056216
adams_marchman_2018,406,634,19,29,8,196.14021041810153,0.23559234556606937,0.22640617358325876,0.21339159393771295,0.7318591007393517,0.6349040397006704,0.9396551724137931,0.9176245210727969,49.827586206896555,83.58620689655172,17.82758620689655,48.55172413793103,1.616805300591426,0.7663547189796719,853.125,6.72498978053875,,0.6439393939393939,2.9444389791664403
adams_marchman_2018,406,635,19,27,12,203.13592627955927,0.30772797109312067,0.23186046893280304,0.1826495549499981,0.625376262360529,0.5394265394213381,0.928639846743295,0.8663793103448276,41.689655172413794,68.6896551724138,25.17241379310345,56.06896551724138,0.4974479064048691,0.08148370163810792,693.75,6.500139695284554,,0.6439393939393939,2.9444389791664403
adams_marchman_2018,406,636,22,16,8,227.14748984494005,0.25340960613953695,0.23478172450977558,0.24988811169417155,0.7388628507669053,0.7023502786336909,0.9411764705882353,0.8599071207430341,50.411764705882355,91.35294117647058,17.352941176470587,39.35294117647059,1.9569112355185256,1.4293749770844273,809.375,6.6663214708695095,0.03823529411764706,,3.091042453358316
adams_marchman_2018,406,637,22,10,4,166.30168369562588,0.31294827922808033,0.2088307538338798,0.264358648996897,0.8543820606723802,0.6107484080315475,0.9340277777777778,0.8163377192982456,57.5,79.83333333333333,9.75,44.25,3.014853193224752,1.0293984999678423,543.75,6.262180530032975,0.03823529411764706,,3.091042453358316
adams_marchman_2018,406,638,24,15,8,173.68768152717598,0.19608946319385992,0.21549751365679465,0.25505412772675923,0.7773679874248586,0.7109244533778873,0.8774509803921569,0.815015479876161,49.94117647058823,88.05882352941177,13.235294117647058,35.8235294117647,2.1781384358042306,1.5026200466009687,915.625,6.803224520097446,0.06764705882352941,,3.1780538303479458
adams_marchman_2018,406,639,24,12,4,126.44992421244599,0.1990653041550643,0.3422872360819017,0.3084679995112983,0.7631759406933312,0.7724967930672467,0.9519230769230769,0.8582995951417004,53.07692307692308,99.53846153846153,15.461538461538462,30.923076923076923,2.263271322380115,2.2322027735541563,656.25,6.472012952717481,0.06764705882352941,,3.1780538303479458
adams_marchman_2018,406,640,30,13,3,90.13878188659973,0.15587324591670532,0.2146957541951932,0.15774341887507004,0.837858496195812,0.7851303675130656,0.8878968253968254,0.8392857142857143,54.642857142857146,99.21428571428571,9.285714285714286,28.357142857142858,2.7051816847855816,2.1099686035455507,600,6.389024146343708,0.49411764705882355,,3.4011973816621555
adams_marchman_2018,406,641,30,12,6,803.3393844862,0.6988014733848815,0.3963982105004927,0.32953848826128496,0.5275758452528109,0.6731594622884909,0.9351851851851852,0.9396929824561403,36.083333333333336,96.83333333333333,31.25,46,0.5226589902256593,1.6591736313428154,1304.1666666666667,6.985653426591507,0.49411764705882355,,3.4011973816621555
adams_marchman_2018,406,642,35,12,5,252.73503912200223,0.3607420013939282,0.17095556985400687,0.11991440716161861,0.8032000962958821,0.8655668976102102,0.9241452991452992,0.6022267206477733,53.69230769230769,78.6923076923077,12.846153846153847,12.846153846153847,1.8708088943534007,2.353253042189838,705,6.506888465143531,,,3.5553480614894135
adams_marchman_2018,406,643,35,16,5,436.3914527118972,0.39643045177376146,0.3334794511794334,0.17656693956905492,0.483533412241747,0.7083348074481468,0.8602430555555556,0.8807565789473684,29.9375,95.6875,32,38.1875,0.659333887938032,1.3125869487091648,1255,7.077120297462143,,,3.5553480614894135
adams_marchman_2018,407,644,15,32,18,265.40756671690474,0.2729565835091332,0.20806363371035838,0.1906022838969906,0.6752454745200612,0.6346887825603907,0.939236111111111,0.9058159722222222,45.84375,82.8125,21.78125,47.625,1.0549612635665233,0.8265812216565505,916.6666666666666,6.784190725639669,,,2.70805020110221
adams_marchman_2018,407,645,15,29,13,612.5555966394878,0.5273663367761366,0.26713515621947254,0.21720218663409724,0.6338330226092981,0.6032896178126191,0.85,0.8252314814814815,39.233333333333334,73.23333333333333,21.966666666666665,45.6,0.6219702058934554,0.6377474082143355,980.7692307692307,6.745812406208946,,,2.70805020110221
adams_marchman_2018,407,646,18,21,8,233.6626078038895,0.31243576853237964,0.27117448478071465,0.2099760491036677,0.6588879684285912,0.6385337053123389,0.910024154589372,0.8176328502415459,43.47826086956522,74.43478260869566,22.043478260869566,43.30434782608695,1.1026373631220079,0.48489984709762035,656.25,6.440282760899711,,,2.8903717578961645
adams_marchman_2018,407,647,18,29,13,241.20756568480547,0.32662201728696727,0.2210408663244336,0.24467550503432833,0.7853726811051246,0.7099995326442796,0.939516129032258,0.8521505376344086,53.61290322580645,88.16129032258064,14.03225806451613,34.54838709677419,2.1549036753562527,1.5667235926501348,709.6153846153846,6.5143749028342945,,,2.8903717578961645
adams_marchman_2018,407,648,22,15,6,207.01247949499728,0.3049996936261268,0.1382040932128587,0.13659973854616259,0.6939088036030681,0.6894265108473367,0.9175925925925926,0.8469298245614035,45.86666666666667,88.86666666666666,20.2,39.86666666666667,0.8832668505854635,0.8880650846833226,654.1666666666666,6.444007353245632,,,3.091042453358316
adams_marchman_2018,407,649,22,8,7,500.1487873861232,0.4762351874124544,0.2586393867334991,0.2773246114571229,0.7191876029055194,0.6398481889870717,0.7696759259259259,0.6441885964912281,39.833333333333336,64.33333333333333,15.583333333333334,33.583333333333336,1.444568815448883,1.1165615713881387,757.1428571428571,6.507833562591331,,,3.091042453358316
adams_marchman_2018,408,650,17,30,13,686.5115271596516,0.49169956848066165,0.33411013856708965,0.26715158358524776,0.5860511957582715,0.618500684513816,0.924074074074074,0.8842592592592593,39,77.86666666666667,27.533333333333335,49.46666666666667,0.6264358269927128,0.6515553738690392,1198.076923076923,6.967868969150748,,0.6123737373737373,2.833213344056216
adams_marchman_2018,408,651,17,28,14,137.49375610198803,0.22879804222391886,0.247627227571991,0.23608122526398612,0.698759093605445,0.6954950387676783,0.8839285714285714,0.876984126984127,45.67857142857143,87.96428571428571,17.964285714285715,38.32142857142857,1.4273303998659879,1.3082521251265364,616.0714285714286,6.399610707862817,,0.6123737373737373,2.833213344056216
adams_marchman_2018,408,652,20,26,12,1135.0039213655393,0.6840522284981689,0.3412869145339934,0.26795300566480224,0.6419321739307445,0.6109026880727916,0.9022633744855967,0.7908950617283951,41.777777777777786,68.18518518518519,23.185185185185187,45.7037037037037,0.6707977182238266,0.8168193141052295,1339.5833333333333,6.947755262949426,,,2.995732273553991
adams_marchman_2018,408,653,20,20,14,758.5682725871312,0.6660925096691035,0.37886824714669554,0.2959943508996252,0.5942786564789111,0.6086505457122744,0.8541666666666666,0.7986111111111112,37.86363636363636,67.86363636363636,23.636363636363637,47.13636363636363,0.4232489836496833,0.5710089401899443,992.8571428571429,6.673480036867155,,,2.995732273553991
adams_marchman_2018,408,654,22,18,10,227.0126036638103,0.28460633325189827,0.15672216850592424,0.2330870644226453,0.7932148648517919,0.7098383854611339,0.9382716049382716,0.8929093567251462,53.833333333333336,96.88888888888889,13.722222222222221,38.833333333333336,1.7063009963027957,1.504045211260244,717.5,6.536816245590965,0.26544117647058824,,3.091042453358316
adams_marchman_2018,408,655,22,10,4,299.30474993446614,0.3660728043634503,0.228055917941123,0.28593994502669495,0.5659150575166818,0.5378330930400914,0.8986111111111111,0.6190789473684211,37.1,51.1,27.6,43,0.5652396702748214,0.46527923059693205,825,6.665694744605573,0.26544117647058824,,3.091042453358316
adams_marchman_2018,408,656,23,14,6,268.52219026863804,0.30555186296610337,0.20745695121801958,0.15725783536940108,0.813302640785213,0.8455241976110327,0.9325396825396826,0.6334586466165414,55.142857142857146,81.71428571428571,12,14.571428571428571,2.4317726671008995,2.7028228726050756,745.8333333333334,6.571142501592505,0.26544117647058824,,3.1354942159291497
adams_marchman_2018,408,657,23,9,4,1134.3133018115705,0.7816583545161,0.4317843195784397,0.2849827440206965,0.6487873400105199,0.7051821483292456,0.9555555555555555,0.8217105263157894,44.7,84.6,24.1,40.3,1.2144157767219323,2.0078599630347083,1175,6.7968151814246704,0.26544117647058824,,3.1354942159291497
adams_marchman_2018,408,658,29,10,3,166.45820296198482,0.21939876425862245,0.3153918224633476,0.3308930668903969,0.7271419677468381,0.7381411875297055,0.9361111111111111,0.6125,49.3,69.4,18.1,23.7,1.58761058733225,1.736032708670012,741.6666666666666,6.592601242590659,0.5058823529411764,,3.367295829986474
adams_marchman_2018,408,659,29,18,6,731.3372455076159,0.5634581817705814,0.4073268543605669,0.29985039781961487,0.5418001196517716,0.6740346941363675,0.9429012345679012,0.918859649122807,37,94,30.88888888888889,45.666666666666664,0.3837647581697467,1.5873028902357231,1954.1666666666667,7.477590613111318,0.5058823529411764,,3.367295829986474
adams_marchman_2018,408,660,38,9,5,240.8318915758459,0.3079911642869302,0.2873136376518793,0.32715383500419354,0.7268933205107264,0.750718451916243,0.8861111111111111,0.5842105263157895,46.9,64.6,16.9,24.2,1.8814706680754874,2.2251969391304303,910,6.779203931977329,,,3.6375861597263857
adams_marchman_2018,408,661,38,15,7,666.9939672747817,0.5579792978267343,0.3963081668647757,0.20604136234707218,0.5850552617488508,0.7240085271055055,0.8802083333333334,0.7972861842105263,36.375,85,27,36.1875,0.5843057918299439,1.6544226829191369,1346.4285714285713,7.081234426438881,,,3.6375861597263857
adams_marchman_2018,409,662,15,8,5,376.497011940334,0.4107644468451206,0.25415463927473375,0.1442314076214021,0.6689260249554366,0.632317648085113,0.8975694444444444,0.8428819444444444,42.875,75.625,21.75,45.75,1.171125768649353,0.5874850439853299,1115,6.957798796329279,,0.4292929292929293,2.70805020110221
adams_marchman_2018,409,663,15,14,8,1122.079542635013,0.8129779196042184,0.3382527050015966,0.24097161690550004,0.5547505923560895,0.590964189964101,0.8923611111111112,0.8120659722222222,36.0625,69.25,28.1875,47.6875,0.15218761267615963,0.6588347245723074,1356.25,6.921147903743291,,0.4292929292929293,2.70805020110221
adams_marchman_2018,409,664,18,24,11,424.3845811610887,0.3457032354952393,0.3470212336875707,0.2754321787188164,0.6555194907603266,0.6496915786251666,0.9006410256410257,0.8368055555555556,43.53846153846154,76,21.307692307692307,44.5,1.1827304878998477,1.141245742251274,1095.4545454545455,6.940902459253159,,0.7146464646464646,2.8903717578961645
adams_marchman_2018,409,665,18,31,14,193.05418302232556,0.28769567837744137,0.21649134536592174,0.23033193624892764,0.6568401777566887,0.6064066095301367,0.91015625,0.8862847222222222,43.375,77.875,22.15625,49.75,1.021202977140962,0.8430238814426334,783.9285714285714,6.629861174779129,,0.7146464646464646,2.8903717578961645
adams_marchman_2018,409,666,21,18,10,311.09126920853595,0.33129533629130964,0.26938050477135866,0.24194248860942089,0.5839921669080916,0.5638199751931812,0.9205246913580247,0.8567251461988304,39.27777777777778,73.22222222222223,27,57,0.777774678940722,0.5343075816107544,780,6.6039351877171875,0.4338235294117647,,3.044522437723423
adams_marchman_2018,409,667,21,7,2,371.23106012293744,0.6190498808997674,0.21147087612557516,0.2861782260609577,0.6996683985155567,0.5542664356051434,0.7100694444444444,0.6702302631578947,33,60.375,18.125,41.5,1.3596060748263983,-0.1718937157287385,637.5,6.364660394647361,0.4338235294117647,,3.044522437723423
adams_marchman_2018,409,668,24,17,10,217.3067468400883,0.3167795625767696,0.17830299881329437,0.2301356023986153,0.702993456293469,0.6847505618870137,0.8962418300653595,0.8773219814241486,45.88235294117647,91.88235294117646,18.647058823529413,41.470588235294116,1.157167055412349,1.0772433425746633,700,6.5069951319983765,0.6426470588235295,,3.1780538303479458
adams_marchman_2018,409,669,24,11,4,137.68926368215256,0.20766707626142733,0.1844475249242523,0.23132722039492548,0.7922779322648237,0.8117138196875463,0.9116161616161617,0.8181818181818182,52.72727272727273,100.63636363636364,12.909090909090908,23.727272727272727,2.1180910790920033,2.4508117483652385,662.5,6.479830836144583,0.6426470588235295,,3.1780538303479458
adams_marchman_2018,409,670,30,11,4,47.32423621500228,0.07578204268033478,0.12228168520691399,0.1347636895405742,0.887844422465481,0.8755441594175517,0.9469696969696969,0.6226076555023924,60.72727272727273,83.36363636363636,7.454545454545454,11.272727272727273,2.83550215903193,2.908046901530773,606.25,6.4050956069208445,0.8147058823529412,,3.4011973816621555
adams_marchman_2018,409,671,30,12,3,752.9110173187798,0.5484429027359224,0.30206838027385463,0.21956735002049046,0.36941004130307553,0.5547686968564711,0.8761574074074074,0.8305921052631579,24.416666666666668,72.75,38.666666666666664,53.5,-0.9453412139451864,0.264207293194869,1625,7.303296334312411,0.8147058823529412,,3.4011973816621555
adams_marchman_2018,409,672,36,12,8,217.09835657731597,0.3126820427492477,0.15687829751424215,0.17719127572673105,0.8726733401585245,0.8736735721960099,0.9081196581196581,0.603744939271255,57.53846153846154,80.46153846153847,7.846153846153846,11.307692307692308,2.6420360060750614,2.7981940358098463,565.625,6.289088048673289,,,3.58351893845611
adams_marchman_2018,409,673,36,16,7,640.6144743618464,0.6760940423425875,0.2887435380108649,0.24182829267321343,0.5951047822546587,0.687266773628127,0.8888888888888888,0.8240131578947368,38.125,83.9375,25.875,41.3125,0.7333701169367035,1.0705823054718693,1110.7142857142858,6.836044317300806,,,3.58351893845611
adams_marchman_2018,410,674,15,30,0,,,0.493477695551373,0.4672918146877016,0.5715890245740991,0.5283114620136035,0.9949074074074074,0.9793981481481482,40.93333333333333,73.86666666666666,30.7,67.16666666666667,0.6972745268779911,0.22880621113456992,,,,0.6035353535353535,2.70805020110221
adams_marchman_2018,410,675,15,31,10,864.5848393561181,0.5475040522419338,0.3837599616195112,0.3085544944731128,0.6233809399101633,0.5781598302561439,0.9453405017921147,0.9327956989247312,42.451612903225815,77.3225806451613,25.612903225806452,57,0.8259206510558788,0.46479342294274556,1267.5,6.987861405021822,,0.6035353535353535,2.70805020110221
adams_marchman_2018,410,676,18,31,17,749.5433658921552,0.613848070938919,0.3225357410138208,0.17672992587906328,0.5939992673836451,0.6556839600220837,0.8920250896057348,0.8978494623655914,38.58064516129032,85.12903225806451,25.64516129032258,44.16129032258065,0.6954247269947722,0.9070310695292902,970.5882352941177,6.670607752758177,,0.8787878787878788,2.8903717578961645
adams_marchman_2018,410,677,18,28,10,653.5426960463682,0.545841744327017,0.2774023121108147,0.23810278161211934,0.6818414106467157,0.6521944592599958,0.9262452107279694,0.9025383141762452,45.41379310344827,85.37931034482759,21.275862068965516,44.58620689655172,1.0925373128983196,0.94527648060077,1012.5,6.769904383879322,,0.8787878787878788,2.8903717578961645
adams_marchman_2018,410,678,21,18,10,311.9829055146024,0.36949751887246707,0.21026636992858586,0.21018526265737003,0.7036684027691568,0.5815934514782606,0.9189814814814815,0.8614766081871345,47,76.33333333333334,19.166666666666668,54.611111111111114,1.2622687849871619,0.3951018992822729,680,6.451614807228813,0.6544117647058824,,3.044522437723423
adams_marchman_2018,410,679,22,12,8,253.54627641855495,0.34922877265222657,0.2568924882838499,0.20948969498362066,0.5917766748083491,0.6522386394281465,0.8942307692307692,0.8410931174089069,39.23076923076923,81.46153846153847,25.153846153846153,46.38461538461539,0.658745984244033,1.0280978784465256,687.5,6.478185986888218,0.6544117647058824,,3.091042453358316
adams_marchman_2018,410,680,25,15,5,74.16198487095663,0.11888892567422782,0.22532535869400272,0.1770419551620814,0.7499763276914286,0.6825977896242896,0.9296296296296296,0.8530701754385965,50.733333333333334,88.33333333333333,16.2,41.333333333333336,1.8838542715257693,1.0875167030281019,610,6.407724252639239,0.8058823529411765,,3.2188758248682006
adams_marchman_2018,410,681,25,14,6,197.90570145063197,0.27109428583643974,0.2098019839864402,0.23558598387786842,0.797598114042089,0.6975793821881267,0.9484126984126984,0.8486842105263158,54.714285714285715,89.28571428571429,13.571428571428571,39.714285714285715,2.1883276930457325,1.3835777030254282,658.3333333333334,6.45694917561731,0.8058823529411765,,3.2188758248682006
adams_marchman_2018,410,682,30,11,3,90.13878188659973,0.17600284163621985,0.19685428902201504,0.12844170685459136,0.8360810646572678,0.8635347752395891,0.9469696969696969,0.6010765550239234,57.63636363636363,78.72727272727273,10.545454545454545,12.636363636363637,2.8242180243194452,2.599172297193903,500,6.204111209391735,0.9279411764705883,,3.4011973816621555
adams_marchman_2018,410,683,30,17,8,361.89913255333613,0.4275783181096395,0.22851808583530736,0.16984798886170682,0.6740466852567171,0.7194435274449235,0.8978758169934641,0.9040247678018576,43.88235294117647,98.6470588235294,20.764705882352942,38.76470588235294,0.9148962268307453,1.14224915137569,628.125,6.3454992204507255,0.9279411764705883,,3.4011973816621555
adams_marchman_2018,410,684,36,7,3,156.12494995995996,0.2737748407881013,0.22574498917840835,0.24185543913424165,0.8009017397667619,0.739059233546138,0.7941919191919192,0.5203349282296651,45.45454545454545,59.90909090909091,11.727272727272727,19.181818181818183,2.3349716523146946,1.6665795546252216,550,6.284289640733761,,,3.58351893845611
adams_marchman_2018,410,685,36,16,6,664.53304407430835,0.6422656113978212,0.3138800898429539,0.2364218537247534,0.5545784789776683,0.6717099773414447,0.8845486111111112,0.8955592105263158,35.5,92.6875,28.1875,43.4375,0.599637701078458,1.4407475497740285,895.8333333333333,6.608201240570106,,,3.58351893845611
adams_marchman_2018,411,686,16,31,13,747.3457305863471,0.49632952261110824,0.3068027483170646,0.2480675482757617,0.6007718549626617,0.6025688775249168,0.9240451388888888,0.9055989583333334,39.96875,79.5625,26.5625,50.84375,0.7109218131224941,0.618634044138796,1146.1538461538462,6.908463211786506,,0.5025252525252525,2.772588722239781
adams_marchman_2018,411,687,16,32,18,342.4041538520866,0.30862038666241587,0.24367273885264246,0.20720658072950002,0.6448559529139168,0.6101874247368791,0.8962673611111112,0.8773871527777778,42.09375,77.5,22.4375,48.84375,1.0943452002450909,0.7005667513779829,1048.611111111111,6.9085863264626175,,0.5025252525252525,2.772588722239781
adams_marchman_2018,411,688,18,32,13,345.75029895976843,0.38827844756409924,0.2924495598865573,0.2338384451915902,0.6224038140088515,0.6666968462052828,0.9418402777777778,0.9264322916666666,42.65625,89.375,25.15625,44.03125,1.1184547893404948,1.2068243579993965,788.4615384615385,6.596278554949286,,0.648989898989899,2.8903717578961645
adams_marchman_2018,411,689,19,32,14,116.68792323360387,0.19525628232003026,0.28259349428399333,0.22776079593444518,0.68309073065862,0.6315342667721091,0.9270833333333334,0.9210069444444444,46.125,83.6875,20.625,48.9375,1.4018071335726787,0.7639485545704381,616.0714285714286,6.4060822318982025,,0.648989898989899,2.9444389791664403
adams_marchman_2018,411,690,23,17,6,176.3637339893513,0.23888058557073583,0.151392542333947,0.11711751441842684,0.8336742335823218,0.8334289371273089,0.9266975308641975,0.8475877192982456,55.77777777777778,107.11111111111111,10.944444444444445,21.72222222222222,2.2052904752972196,2.0318266361727315,670.8333333333334,6.483220666317907,0.6051470588235295,,3.1354942159291497
adams_marchman_2018,411,691,23,14,4,191.89298232782423,0.2449840759124367,0.2502094193168152,0.22619145266291923,0.7494155510232059,0.7215491668667413,0.9424603174603174,0.8754699248120301,51.642857142857146,97.21428571428571,16.214285714285715,35.857142857142854,2.088281575817749,1.7554246248214802,718.75,6.553647415097105,0.6051470588235295,,3.1354942159291497
adams_marchman_2018,411,692,24,16,6,57.0087712549569,0.11958887669071337,0.2754068743879889,0.2961297251976662,0.7999323307075765,0.7198387323598274,0.951797385620915,0.8568111455108359,55,93.88235294117646,13.529411764705882,36.35294117647059,2.237199004945686,1.557989537731385,500,6.208842857627255,0.6051470588235295,,3.1780538303479458
adams_marchman_2018,411,693,24,4,2,17.67766952966369,0.02571580780900459,0.3336663022589071,0.41886354840968587,0.6478213071109696,0.5888554943692514,0.875,0.6787280701754386,40.333333333333336,66.83333333333333,22.666666666666668,36.333333333333336,1.0531217735998242,1.3188480543666605,687.5,6.532896512957967,0.6051470588235295,,3.1780538303479458
adams_marchman_2018,411,694,30,14,8,300.59464875001163,0.39622168644472255,0.18106662433449067,0.15593226852167083,0.7988466083041788,0.8221297666484582,0.9226190476190477,0.606203007518797,53.214285714285715,76.07142857142857,13.214285714285714,16.071428571428573,2.0528799640892923,2.261885316931744,662.5,6.4216406764948575,0.861764705882353,,3.4011973816621555
adams_marchman_2018,411,695,30,16,2,830.8504678941933,0.9373900622752759,0.2617358198557997,0.1385096507992002,0.5986185025513784,0.7720348170363546,0.900173611111111,0.8869243421052632,39.125,104.5625,25.6875,30.25,0.7493130070815651,1.6962231305478164,1012.5,6.714924038576145,0.861764705882353,,3.4011973816621555
adams_marchman_2018,411,696,36,11,6,82.78989471346529,0.16513257592114072,0.23450654196619203,0.23813226803441964,0.7378920764318918,0.7653533660325681,0.9247685185185185,0.5970394736842105,49.25,69.91666666666667,17.333333333333332,20.833333333333332,1.444115204554932,1.7023550997219068,545.8333333333334,6.291582338679571,,,3.58351893845611
adams_marchman_2018,411,697,36,14,3,604.8415770541352,0.7635005791199647,0.23557725921759134,0.12287720422553443,0.5611134054879041,0.7594829905944088,0.8581349206349206,0.8458646616541353,34.214285714285715,98.28571428571429,27.571428571428573,30.285714285714285,0.3895424294653774,1.3501764528803106,1058.3333333333333,6.802459057534817,,,3.58351893845611
adams_marchman_2018,412,698,17,32,13,267.82600551621056,0.30321937218097633,0.22458627227368647,0.21667233477493097,0.7862595145289485,0.8329370128988823,0.9609375,0.9691840277777778,54.625,116.59375,14.5625,22.96875,2.073329684260865,2.4257959467133228,761.5384615384615,6.5886732573986535,,0.7083333333333333,2.833213344056216
